Timestamp(ms),GyroX,GyroY,GyroZ,AccelX,AccelY,AccelZ
65,0.01,0.00,0.00,0.21,0.06,9.95
70,0.01,0.00,0.00,0.21,0.05,9.93
75,0.01,0.00,0.00,0.16,0.09,9.94
80,0.02,0.00,0.00,0.19,0.07,9.95
85,0.01,0.00,0.00,0.18,0.06,9.95
90,0.02,0.00,0.00,0.20,0.09,9.95
95,0.02,0.00,0.00,0.22,0.08,9.94
100,0.02,0.00,0.00,0.20,0.11,9.96
105,0.01,0.00,0.00,0.22,0.11,9.97
110,0.01,0.00,0.00,0.23,0.10,9.96
115,0.01,0.00,0.00,0.22,0.13,9.97
120,0.01,0.00,0.00,0.26,0.10,9.97
125,0.01,0.00,0.00,0.24,0.12,9.97
130,0.01,0.00,0.00,0.27,0.11,9.96
135,0.01,0.00,0.00,0.28,0.09,9.96
140,0.01,0.00,0.00,0.24,0.13,9.96
145,0.01,0.00,0.00,0.29,0.09,9.96
151,0.01,0.00,0.00,0.26,0.09,9.95
156,0.01,0.00,0.00,0.27,0.11,9.95
161,0.01,0.00,0.00,0.29,0.08,9.94
166,0.01,0.00,0.00,0.27,0.09,9.94
171,0.01,0.00,0.01,0.29,0.11,9.94
176,0.01,0.00,0.00,0.26,0.08,9.94
181,0.01,0.00,0.00,0.25,0.10,9.95
186,0.01,0.00,0.01,0.27,0.09,9.96
191,0.01,0.00,0.01,0.22,0.11,9.93
196,0.01,0.00,0.01,0.25,0.10,9.94
201,0.01,0.00,0.01,0.25,0.09,9.95
206,0.01,0.00,0.01,0.21,0.12,9.96
211,0.01,0.00,0.01,0.24,0.10,9.95
216,0.01,0.00,0.01,0.20,0.11,9.94
221,0.01,0.00,0.01,0.21,0.11,9.97
226,0.01,0.00,0.01,0.22,0.10,9.96
231,0.01,0.00,0.01,0.19,0.12,9.93
236,0.01,0.00,0.01,0.23,0.09,9.95
241,0.01,0.00,0.01,0.21,0.09,9.95
246,0.01,0.00,0.01,0.22,0.09,9.93
251,0.01,0.00,0.01,0.24,0.08,9.92
256,0.01,0.00,0.00,0.20,0.09,9.91
261,0.01,0.00,0.01,0.26,0.08,9.95
267,0.01,0.00,0.01,0.24,0.05,9.92
272,0.01,0.00,0.01,0.22,0.07,9.89
277,0.01,0.00,0.01,0.25,0.05,9.90
282,0.01,0.00,0.01,0.23,0.05,9.93
287,0.01,0.00,0.01,0.25,0.06,9.91
292,0.01,0.00,0.01,0.24,0.03,9.88
297,0.01,0.00,0.01,0.20,0.07,9.90
302,0.01,0.00,0.01,0.25,0.06,9.94
307,0.01,0.00,0.01,0.21,0.05,9.91
312,0.01,0.00,0.01,0.20,0.07,9.89
317,0.01,0.00,0.01,0.22,0.05,9.90
322,0.01,0.00,0.01,0.18,0.09,9.93
327,0.01,0.00,0.01,0.21,0.06,9.92
332,0.01,0.00,0.00,0.17,0.06,9.91
337,0.01,0.00,0.00,0.18,0.10,9.91
342,0.01,0.00,0.00,0.20,0.07,9.94
347,0.01,0.00,0.00,0.14,0.08,9.91
352,0.01,0.00,0.00,0.20,0.08,9.91
357,0.01,0.00,0.00,0.19,0.08,9.92
362,0.01,0.00,0.00,0.17,0.10,9.94
367,0.01,0.00,0.00,0.21,0.08,9.93
372,0.01,0.00,0.00,0.18,0.09,9.91
377,0.01,0.00,0.00,0.21,0.08,9.91
383,0.01,0.00,0.00,0.22,0.05,9.93
388,0.01,0.00,0.00,0.19,0.08,9.91
393,0.01,0.00,0.00,0.23,0.05,9.90
398,0.01,0.00,0.00,0.18,0.06,9.91
403,0.01,0.00,0.00,0.19,0.08,9.92
408,0.01,0.00,0.00,0.20,0.04,9.91
413,0.01,0.00,0.00,0.17,0.08,9.89
418,0.01,0.00,0.00,0.19,0.06,9.91
423,0.01,0.00,0.00,0.17,0.07,9.93
428,0.01,0.00,0.00,0.16,0.09,9.92
433,0.01,0.00,0.00,0.17,0.07,9.90
438,0.01,0.00,0.00,0.14,0.08,9.90
443,0.01,0.00,0.00,0.17,0.09,9.94
448,0.01,0.00,0.00,0.16,0.08,9.92
453,0.01,0.00,0.00,0.14,0.11,9.91
458,0.01,0.00,0.00,0.17,0.07,9.91
463,0.01,0.00,0.00,0.13,0.07,9.91
468,0.01,0.00,0.00,0.16,0.09,9.93
473,0.01,0.00,0.00,0.18,0.04,9.90
478,0.01,0.00,0.00,0.14,0.08,9.90
483,0.01,0.00,0.00,0.18,0.05,9.91
488,0.01,0.00,0.00,0.18,0.04,9.90
494,0.01,0.00,0.00,0.17,0.06,9.90
499,0.01,0.00,0.00,0.22,0.02,9.88
504,0.01,0.00,0.00,0.17,0.06,9.89
509,0.01,0.00,0.00,0.22,0.04,9.90
514,0.02,0.00,0.00,0.22,0.04,9.89
519,0.02,0.00,0.00,0.21,0.08,9.90
524,0.01,0.00,0.00,0.25,0.05,9.90
529,0.02,0.00,0.00,0.20,0.08,9.90
534,0.02,0.00,0.00,0.24,0.08,9.92
539,0.02,0.00,0.00,0.26,0.06,9.91
544,0.02,0.00,0.00,0.22,0.10,9.92
549,0.02,0.00,0.00,0.28,0.07,9.93
554,0.02,0.00,0.00,0.24,0.09,9.93
559,0.02,0.00,0.00,0.26,0.11,9.93
564,0.02,0.00,0.00,0.29,0.09,9.92
569,0.02,0.00,0.00,0.25,0.12,9.95
574,0.01,0.00,0.00,0.29,0.10,9.95
579,0.01,0.00,0.00,0.28,0.09,9.91
584,0.01,0.00,0.00,0.28,0.12,9.91
589,0.01,0.00,0.00,0.32,0.08,9.93
594,0.01,0.00,0.00,0.27,0.13,9.94
599,0.01,0.00,0.00,0.30,0.09,9.92
604,0.01,0.00,0.00,0.31,0.07,9.90
610,0.01,0.00,0.00,0.28,0.10,9.93
615,0.01,0.00,0.00,0.32,0.07,9.94
620,0.01,0.00,0.00,0.28,0.06,9.89
625,0.01,0.00,0.00,0.29,0.07,9.92
630,0.01,0.00,0.00,0.31,0.06,9.91
635,0.01,0.00,0.00,0.26,0.08,9.92
640,0.01,0.00,0.00,0.30,0.05,9.90
645,0.01,0.00,0.00,0.26,0.06,9.90
650,0.01,0.00,0.00,0.26,0.09,9.92
655,0.01,0.00,0.00,0.28,0.06,9.92
660,0.01,0.00,0.00,0.24,0.09,9.90
665,0.02,0.00,0.00,0.27,0.08,9.94
670,0.01,0.00,0.00,0.27,0.09,9.94
675,0.02,0.00,0.00,0.24,0.12,9.94
680,0.01,0.00,0.00,0.30,0.10,9.94
685,0.02,0.00,0.00,0.26,0.12,9.94
690,0.01,0.00,0.00,0.29,0.13,9.96
695,0.01,0.00,0.00,0.31,0.11,9.97
700,0.01,0.00,0.00,0.28,0.14,9.93
705,0.01,0.00,0.00,0.32,0.12,9.96
710,0.01,0.00,0.01,0.28,0.11,9.97
715,0.01,0.00,0.01,0.29,0.13,9.98
720,0.01,0.00,0.01,0.32,0.07,9.92
726,0.01,0.00,0.01,0.27,0.10,9.94
731,0.01,0.00,0.01,0.30,0.08,9.96
736,0.01,0.00,0.01,0.28,0.07,9.95
741,0.01,0.00,0.01,0.26,0.07,9.93
746,0.01,0.00,0.01,0.28,0.05,9.92
751,0.01,0.00,0.01,0.22,0.08,9.94
756,0.01,0.00,0.01,0.24,0.05,9.94
761,0.01,0.00,0.01,0.23,0.03,9.92
766,0.01,0.00,0.01,0.18,0.08,9.93
771,0.01,0.00,0.01,0.21,0.06,9.95
776,0.01,0.00,0.01,0.14,0.07,9.94
781,0.01,0.00,0.01,0.16,0.09,9.94
786,0.01,0.00,0.01,0.16,0.08,9.96
791,0.01,0.00,0.01,0.12,0.11,9.96
796,0.01,0.00,0.01,0.15,0.09,9.98
801,0.01,0.00,0.01,0.12,0.09,9.95
806,0.01,0.00,0.01,0.12,0.11,9.96
811,0.01,0.00,0.01,0.17,0.08,9.97
816,0.01,0.00,0.01,0.13,0.11,9.96
821,0.01,0.00,0.00,0.16,0.07,9.94
826,0.01,0.00,0.01,0.17,0.06,9.94
831,0.01,0.00,0.00,0.17,0.08,9.97
836,0.01,0.00,0.01,0.23,0.04,9.97
842,0.01,-0.00,0.00,0.22,0.06,9.93
847,0.01,-0.00,0.01,0.25,0.06,9.94
852,0.01,-0.00,0.01,0.24,0.04,9.98
857,0.01,-0.00,0.01,0.23,0.08,9.95
862,0.01,-0.00,0.01,0.29,0.05,9.94
867,0.01,-0.00,0.01,0.29,0.09,9.98
872,0.01,-0.00,0.01,0.30,0.09,9.96
877,0.01,-0.00,0.01,0.33,0.06,9.95
882,0.01,-0.00,0.01,0.28,0.09,9.93
887,0.01,-0.00,0.01,0.32,0.08,9.97
892,0.01,-0.00,0.01,0.29,0.06,9.95
897,0.01,-0.00,0.01,0.27,0.08,9.94
902,0.01,-0.00,0.01,0.26,0.06,9.97
907,0.01,-0.00,0.01,0.18,0.11,9.94
912,0.01,-0.00,0.01,0.13,0.14,10.01
917,0.01,0.00,0.01,0.05,0.16,10.03
922,0.01,0.00,0.01,0.02,0.14,9.96
927,0.01,0.00,0.00,0.00,0.10,9.99
932,0.01,0.00,0.00,-0.03,0.09,10.00
937,0.01,0.00,0.00,-0.03,0.09,9.97
942,0.01,0.00,0.00,-0.02,0.07,9.96
947,0.01,0.00,-0.00,-0.02,0.07,9.99
953,0.01,0.00,0.00,0.03,0.04,9.95
958,0.01,0.00,0.00,0.06,-0.01,9.95
963,0.01,0.00,0.00,0.10,0.01,9.92
968,0.01,0.00,0.00,0.16,-0.02,9.94
973,0.01,0.00,0.00,0.18,-0.01,9.90
978,0.01,0.00,0.00,0.23,0.01,9.94
983,0.01,0.00,0.00,0.26,-0.00,9.92
988,0.01,0.00,0.00,0.27,0.03,9.95
993,0.01,0.00,0.01,0.33,0.01,9.96
998,0.01,-0.00,0.01,0.33,0.02,9.95
1003,0.01,-0.00,0.01,0.37,0.05,9.93
1008,0.01,0.00,0.01,0.38,0.05,9.97
1013,0.01,-0.00,0.01,0.36,0.09,9.97
1018,0.01,-0.00,0.01,0.37,0.08,9.97
1023,0.01,-0.00,0.01,0.35,0.09,9.98
1028,0.01,0.00,0.00,0.35,0.11,10.00
1033,0.01,0.00,0.00,0.37,0.09,9.98
1038,0.01,0.00,0.00,0.32,0.09,9.97
1043,0.01,0.00,0.00,0.34,0.09,9.98
1048,0.01,0.00,0.00,0.34,0.04,9.91
1053,0.02,0.01,0.00,0.23,-0.09,9.76
1058,0.00,0.01,-0.00,0.13,0.13,10.37
1063,0.04,0.01,-0.00,0.24,0.03,9.58
1069,-0.00,0.01,-0.00,0.24,0.04,10.20
1074,0.04,0.00,-0.00,0.26,-0.01,9.86
1079,-0.00,0.00,0.00,0.33,0.15,9.99
1084,0.03,0.01,0.00,0.38,0.10,10.01
1089,0.01,-0.00,0.01,0.32,0.07,9.99
1094,0.02,-0.00,0.01,0.31,0.23,9.87
1099,0.01,0.00,0.01,0.24,0.10,10.24
1104,0.02,-0.01,0.01,0.21,0.10,9.74
1109,0.01,-0.00,0.01,0.13,0.05,10.13
1114,0.02,-0.00,0.01,0.16,-0.06,9.80
1119,0.01,-0.00,0.01,0.10,0.04,10.06
1124,0.02,0.00,0.01,0.13,0.00,9.81
1129,0.02,0.00,0.00,0.07,0.06,10.11
1134,0.02,0.00,0.00,0.14,0.05,9.81
1139,0.02,0.01,-0.00,0.20,0.11,10.13
1144,0.02,0.00,-0.00,0.26,0.11,9.90
1149,0.02,0.01,-0.00,0.29,0.13,10.10
1154,0.02,0.01,-0.00,0.30,0.16,9.94
1159,0.02,0.01,-0.00,0.30,0.21,10.11
1164,0.01,0.01,0.00,0.29,0.23,10.00
1169,0.01,0.00,0.00,0.26,0.20,10.05
1174,0.01,0.00,0.00,0.25,0.18,10.01
1179,0.01,0.00,0.01,0.22,0.15,10.02
1185,0.01,0.00,0.01,0.20,0.10,9.96
1190,0.01,0.00,0.01,0.17,0.06,10.00
1195,0.01,-0.00,0.01,0.13,0.03,9.91
1200,0.01,0.00,0.01,0.13,0.02,9.97
1205,0.01,0.00,0.01,0.13,-0.01,9.93
1210,0.01,0.00,0.01,0.13,-0.00,9.91
1215,0.01,0.00,0.01,0.15,-0.03,9.94
1220,0.01,0.00,0.00,0.14,-0.02,9.92
1225,0.01,0.00,0.00,0.16,0.01,9.96
1230,0.01,0.00,0.00,0.16,0.00,9.93
1235,0.02,0.00,0.00,0.14,0.07,9.97
1240,0.01,0.00,0.00,0.19,0.06,9.98
1245,0.02,0.00,0.00,0.20,0.10,9.99
1250,0.01,0.00,0.00,0.24,0.12,10.01
1255,0.01,0.00,0.00,0.26,0.08,10.01
1260,0.01,0.00,0.00,0.27,0.14,9.98
1265,0.01,0.00,0.00,0.32,0.11,10.00
1270,0.01,-0.00,0.00,0.31,0.09,9.97
1275,0.01,-0.00,0.01,0.32,0.11,9.99
1280,0.01,0.00,0.01,0.34,0.07,9.95
1285,0.01,0.00,0.01,0.30,0.07,9.97
1290,0.01,0.00,0.01,0.32,0.05,9.96
1295,0.01,0.00,0.01,0.30,0.03,9.95
1301,0.01,0.00,0.01,0.26,0.05,9.96
1306,0.01,0.00,0.01,0.27,0.03,9.96
1311,0.01,0.00,0.00,0.20,0.05,9.94
1316,0.01,0.00,0.00,0.23,0.06,9.96
1321,0.01,0.00,0.00,0.22,0.06,9.96
1326,0.01,0.00,0.00,0.18,0.09,9.97
1331,0.01,0.00,0.00,0.22,0.07,10.00
1336,0.01,0.00,0.00,0.19,0.08,9.99
1341,0.01,0.00,0.00,0.20,0.12,9.99
1346,0.01,0.00,0.00,0.20,0.10,10.01
1351,0.01,0.00,0.00,0.17,0.14,10.00
1356,0.01,0.00,0.01,0.20,0.10,9.99
1361,0.01,0.00,0.01,0.17,0.10,9.99
1366,0.01,0.00,0.01,0.15,0.09,9.95
1371,0.01,0.00,0.01,0.15,0.06,9.98
1376,0.01,0.00,0.01,0.11,0.07,9.95
1381,0.01,0.00,0.00,0.13,0.06,9.97
1386,0.01,0.00,0.00,0.14,0.04,9.96
1391,0.01,0.00,0.00,0.12,0.07,9.97
1396,0.01,0.00,0.00,0.18,0.05,9.98
1401,0.01,0.00,0.00,0.17,0.07,9.96
1406,0.01,0.00,-0.00,0.20,0.10,9.99
1411,0.01,0.00,-0.00,0.23,0.06,9.99
1417,0.01,0.00,0.00,0.22,0.11,9.97
1422,0.01,0.00,0.00,0.27,0.09,10.00
1427,0.01,0.00,0.00,0.24,0.11,9.98
1432,0.01,0.00,0.00,0.24,0.11,9.98
1437,0.01,0.00,0.00,0.27,0.07,9.98
1442,0.01,0.00,0.00,0.22,0.09,9.95
1447,0.01,0.00,0.00,0.26,0.06,9.98
1452,0.01,0.00,0.00,0.28,0.03,9.95
1457,0.01,0.00,0.00,0.26,0.06,9.95
1462,0.01,0.00,0.00,0.30,0.02,9.94
1467,0.01,0.00,0.00,0.30,0.03,9.95
1472,0.01,0.00,0.00,0.32,0.02,9.94
1477,0.01,0.00,0.00,0.32,0.00,9.94
1482,0.01,0.00,0.00,0.27,0.05,9.95
1487,0.01,0.00,0.00,0.32,0.02,9.93
1492,0.01,0.00,0.00,0.27,0.05,9.97
1497,0.01,0.00,0.00,0.28,0.06,9.94
1502,0.01,0.00,0.00,0.27,0.06,9.98
1507,0.01,0.00,0.00,0.21,0.08,9.96
1512,0.01,0.00,0.00,0.23,0.09,10.00
1517,0.01,0.00,0.00,0.19,0.09,9.98
1522,0.01,0.00,0.00,0.17,0.11,9.97
1528,0.01,0.00,0.00,0.17,0.09,9.99
1533,0.01,0.00,0.00,0.12,0.10,9.96
1538,0.01,0.00,0.00,0.15,0.09,9.98
1543,0.01,0.00,0.00,0.16,0.07,9.96
1548,0.01,0.00,0.00,0.13,0.09,9.96
1553,0.01,0.00,0.00,0.16,0.04,9.97
1558,0.01,0.00,0.00,0.14,0.05,9.96
1563,0.01,0.00,0.00,0.18,0.05,9.95
1568,0.01,0.00,0.00,0.20,0.03,9.97
1573,0.01,0.00,0.00,0.18,0.07,9.95
1578,0.01,0.00,0.00,0.23,0.06,9.97
1583,0.01,0.00,0.00,0.22,0.07,9.97
1588,0.01,0.00,0.00,0.25,0.09,9.99
1593,0.01,0.00,0.00,0.27,0.06,9.95
1598,0.01,0.00,0.00,0.25,0.12,10.00
1603,0.01,0.00,0.00,0.29,0.09,9.98
1608,0.01,0.00,0.00,0.27,0.13,10.01
1613,0.01,0.00,0.00,0.27,0.12,9.95
1618,0.01,0.00,0.00,0.28,0.12,10.03
1623,0.01,0.00,0.00,0.22,0.11,9.94
1628,0.01,0.00,0.00,0.23,0.13,10.00
1633,0.01,0.00,0.00,0.22,0.09,9.97
1638,0.01,0.00,0.00,0.18,0.11,9.99
1644,0.01,0.00,0.00,0.20,0.08,9.96
1649,0.01,0.00,0.00,0.17,0.07,9.98
1654,0.01,0.00,0.00,0.19,0.05,9.96
1659,0.01,0.00,0.00,0.20,0.01,9.94
1664,0.01,0.00,0.00,0.17,0.06,9.92
1669,0.01,0.00,0.00,0.24,0.01,9.94
1674,0.01,0.00,0.00,0.21,0.01,9.92
1679,0.01,0.00,0.00,0.22,0.01,9.93
1684,0.01,0.00,0.00,0.26,-0.01,9.92
1689,0.01,0.00,0.00,0.23,0.02,9.93
1694,0.01,0.00,0.00,0.26,0.00,9.92
1699,0.02,0.00,0.00,0.27,0.01,9.93
1704,0.02,0.00,0.00,0.26,0.03,9.92
1709,0.01,0.00,0.01,0.27,0.03,9.94
1714,0.02,0.00,0.01,0.25,0.06,9.93
1719,0.01,0.00,0.01,0.26,0.07,9.95
1724,0.02,0.00,0.01,0.28,0.05,9.96
1729,0.01,-0.00,0.01,0.24,0.10,9.97
1734,0.01,-0.00,0.01,0.28,0.09,9.97
1739,0.01,0.00,0.01,0.25,0.09,9.96
1744,0.01,-0.00,0.01,0.26,0.11,9.98
1749,0.01,-0.00,0.01,0.29,0.09,9.98
1754,0.01,0.00,0.01,0.24,0.12,9.99
1760,0.01,-0.00,0.01,0.28,0.10,9.99
1765,0.01,0.00,0.01,0.28,0.11,9.97
1770,0.01,0.00,0.01,0.26,0.12,9.98
1775,0.01,0.00,0.00,0.29,0.09,10.00
1780,0.01,0.00,0.00,0.25,0.11,9.99
1785,0.01,0.00,0.00,0.29,0.12,9.99
1790,0.01,0.00,0.00,0.28,0.11,9.99
1795,0.01,0.00,0.00,0.26,0.13,9.99
1800,0.01,0.00,0.00,0.29,0.11,9.99
1805,0.01,0.00,0.00,0.25,0.12,9.98
1810,0.01,0.00,0.00,0.29,0.12,9.99
1815,0.01,0.00,0.00,0.29,0.08,9.98
1820,0.01,0.00,0.00,0.24,0.11,9.97
1825,0.01,0.00,0.00,0.28,0.07,9.97
1830,0.01,0.00,0.01,0.24,0.08,9.97
1835,0.01,0.00,0.00,0.24,0.08,9.96
1840,0.01,0.00,0.00,0.26,0.03,9.94
1845,0.01,0.00,0.01,0.22,0.07,9.95
1850,0.01,0.00,0.01,0.25,0.05,9.95
1855,0.01,0.00,0.01,0.22,0.05,9.96
1860,0.01,0.00,0.01,0.20,0.07,9.95
1865,0.01,0.00,0.01,0.21,0.05,9.95
1871,0.01,0.00,0.01,0.17,0.07,9.96
1876,0.01,0.00,0.01,0.20,0.05,9.96
1881,0.01,0.00,0.01,0.20,0.05,9.96
1886,0.01,0.00,0.01,0.18,0.08,9.95
1891,0.01,0.00,0.01,0.21,0.06,9.97
1896,0.01,0.00,0.01,0.18,0.06,9.97
1901,0.01,0.00,0.00,0.18,0.09,9.97
1906,0.01,0.00,0.00,0.20,0.05,9.95
1911,0.01,0.00,0.01,0.18,0.08,9.96
1916,0.01,0.00,0.00,0.22,0.07,9.97
1921,0.01,0.00,0.00,0.18,0.07,9.98
1926,0.01,0.00,0.00,0.18,0.09,9.96
1931,0.01,0.00,0.00,0.22,0.07,9.95
1936,0.01,0.00,0.00,0.19,0.09,9.97
1941,0.01,0.00,0.00,0.23,0.08,9.96
1946,0.01,0.00,0.00,0.22,0.07,9.97
1951,0.01,0.00,0.00,0.21,0.09,9.96
1956,0.01,0.00,0.00,0.25,0.06,9.96
1961,0.01,0.00,0.00,0.22,0.06,9.96
1966,0.01,0.00,0.00,0.25,0.08,9.96
1971,0.01,0.00,0.01,0.26,0.05,9.95
1976,0.01,0.00,0.00,0.23,0.07,9.96
1981,0.01,0.00,0.00,0.24,0.06,9.94
1987,0.01,0.00,0.00,0.20,0.06,9.97
1992,0.01,0.00,0.01,0.21,0.07,9.95
1997,0.01,0.00,0.01,0.23,0.06,9.97
2002,0.01,0.00,0.00,0.19,0.08,9.95
2007,0.01,0.00,0.00,0.22,0.08,9.98
2012,0.01,0.00,0.00,0.19,0.06,9.94
2017,0.01,0.00,0.00,0.18,0.09,9.97
2022,0.01,0.00,0.00,0.20,0.05,9.94
2027,0.01,0.00,0.00,0.17,0.09,9.99
2032,0.01,0.00,0.00,0.18,0.07,9.95
2037,0.01,0.00,0.00,0.18,0.06,9.96
2042,0.01,0.00,0.00,0.15,0.08,9.94
2047,0.01,0.00,0.00,0.17,0.05,9.97
2052,0.01,0.00,0.00,0.15,0.05,9.95
2057,0.01,0.00,0.00,0.17,0.05,9.96
2062,0.01,0.00,0.00,0.16,0.02,9.96
2067,0.01,0.00,0.00,0.14,0.05,9.95
2072,0.01,0.00,0.00,0.18,0.04,9.95
2077,0.01,0.00,0.00,0.16,0.03,9.95
2082,0.01,0.00,0.00,0.18,0.06,9.94
2087,0.01,0.00,0.00,0.19,0.02,9.96
2092,0.01,0.00,0.00,0.17,0.05,9.93
2097,0.01,0.00,0.00,0.20,0.05,9.96
2103,0.01,0.00,0.00,0.19,0.03,9.92
2108,0.01,0.00,0.00,0.20,0.08,9.97
2113,0.02,0.00,0.00,0.24,0.03,9.94
2118,0.01,0.00,0.00,0.19,0.08,9.96
2123,0.02,0.00,0.00,0.24,0.08,9.95
2128,0.01,0.00,0.00,0.24,0.06,9.98
2133,0.01,0.00,0.00,0.23,0.09,9.96
2138,0.01,0.00,0.00,0.28,0.09,9.99
2143,0.01,0.00,0.00,0.26,0.09,9.96
2148,0.01,0.00,0.00,0.27,0.10,9.98
2153,0.01,0.00,0.00,0.30,0.07,9.96
2158,0.01,0.00,0.00,0.25,0.12,9.97
2163,0.01,0.00,0.00,0.32,0.09,9.96
2168,0.01,0.00,0.00,0.29,0.08,9.98
2173,0.01,0.00,0.00,0.29,0.10,9.97
2178,0.01,0.00,0.00,0.32,0.06,9.97
2183,0.01,0.00,0.00,0.28,0.09,9.95
2188,0.01,0.00,0.00,0.31,0.08,9.97
2193,0.01,0.00,0.00,0.29,0.06,9.95
2198,0.01,0.00,0.00,0.29,0.09,9.95
2203,0.01,0.00,0.00,0.31,0.05,9.96
2208,0.01,0.00,0.00,0.28,0.08,9.96
2213,0.01,0.00,0.00,0.29,0.08,9.96
2219,0.01,0.00,0.00,0.30,0.05,9.95
2224,0.01,0.00,0.00,0.26,0.09,9.96
2229,0.01,0.00,0.00,0.31,0.07,9.95
2234,0.01,0.00,0.00,0.27,0.08,9.95
2239,0.01,0.00,0.00,0.27,0.10,9.97
2244,0.01,0.00,0.00,0.29,0.07,9.96
2249,0.01,0.00,0.01,0.25,0.10,9.96
2254,0.01,0.00,0.00,0.28,0.08,9.97
2259,0.01,0.00,0.00,0.26,0.08,9.97
2264,0.01,0.00,0.00,0.27,0.10,9.98
2269,0.01,0.00,0.00,0.28,0.07,9.97
2274,0.01,0.00,0.00,0.24,0.09,9.97
2279,0.01,0.00,0.00,0.26,0.07,9.96
2284,0.01,0.00,0.00,0.25,0.05,9.95
2289,0.01,0.00,0.00,0.23,0.08,9.97
2294,0.01,0.00,0.00,0.27,0.05,9.95
2299,0.01,0.00,0.01,0.22,0.06,9.96
2304,0.01,0.00,0.01,0.24,0.07,9.95
2309,0.01,0.00,0.01,0.24,0.05,9.97
2314,0.01,0.00,0.01,0.20,0.09,9.95
2319,0.01,0.00,0.01,0.25,0.06,9.96
2324,0.01,0.00,0.01,0.19,0.07,9.95
2330,0.01,0.00,0.01,0.20,0.09,9.96
2335,0.01,0.00,0.01,0.22,0.06,9.96
2340,0.01,0.00,0.01,0.17,0.10,9.96
2345,0.01,0.00,0.01,0.20,0.09,9.99
2350,0.01,0.00,0.01,0.17,0.08,9.97
2355,0.01,0.00,0.01,0.17,0.13,9.98
2360,0.01,0.00,0.01,0.20,0.09,9.97
2365,0.01,0.00,0.01,0.16,0.12,9.97
2370,0.01,0.00,0.01,0.18,0.11,9.97
2375,0.01,0.00,0.01,0.18,0.08,9.96
2380,0.01,0.00,0.01,0.16,0.11,9.96
2385,0.01,0.00,0.01,0.19,0.08,9.98
2390,0.01,0.00,0.01,0.17,0.09,9.96
2395,0.01,0.00,0.00,0.18,0.08,9.96
2400,0.01,0.00,0.00,0.20,0.06,9.97
2405,0.01,0.00,0.00,0.16,0.07,9.96
2410,0.01,0.00,0.00,0.20,0.05,9.96
2415,0.01,0.00,0.00,0.18,0.03,9.94
2420,0.01,0.00,0.00,0.18,0.04,9.95
2425,0.01,0.00,0.00,0.21,0.02,9.94
2430,0.01,0.00,0.00,0.16,0.04,9.93
2435,0.01,0.00,0.00,0.21,0.02,9.94
2440,0.01,0.00,0.00,0.20,0.01,9.93
2445,0.01,0.00,0.00,0.18,0.05,9.93
2451,0.01,0.00,0.00,0.23,0.02,9.94
2456,0.01,0.00,0.00,0.20,0.04,9.94
2461,0.01,0.00,0.00,0.23,0.06,9.95
2466,0.01,0.00,0.00,0.24,0.04,9.95
2471,0.01,0.00,0.00,0.21,0.08,9.95
2476,0.01,0.00,0.00,0.24,0.05,9.95
2481,0.01,0.00,0.01,0.22,0.07,9.95
2486,0.01,0.00,0.00,0.24,0.07,9.96
2491,0.01,0.00,0.00,0.26,0.05,9.96
2496,0.01,0.00,0.00,0.23,0.09,9.96
2501,0.01,0.00,0.00,0.26,0.07,9.96
2506,0.01,0.00,0.00,0.23,0.06,9.95
2511,0.01,0.00,0.00,0.23,0.09,9.96
2516,0.01,0.00,0.00,0.28,0.05,9.96
2521,0.01,0.00,0.00,0.21,0.08,9.95
2526,0.01,0.00,0.00,0.25,0.08,9.97
2531,0.01,0.00,0.00,0.23,0.06,9.96
2536,0.01,0.00,0.00,0.22,0.10,9.95
2541,0.01,0.00,0.00,0.26,0.06,9.95
2546,0.01,0.00,0.00,0.21,0.08,9.96
2551,0.01,0.00,0.00,0.23,0.07,9.95
2556,0.01,0.00,0.00,0.23,0.07,9.97
2562,0.01,0.00,0.00,0.20,0.09,9.95
2567,0.01,0.00,0.00,0.23,0.08,9.97
2572,0.01,0.00,0.00,0.22,0.09,9.97
2577,0.01,0.00,0.00,0.21,0.09,9.96
2582,0.01,0.00,0.00,0.23,0.07,9.97
2587,0.01,0.00,0.00,0.19,0.10,9.96
2592,0.01,0.00,0.00,0.23,0.08,9.96
2597,0.01,0.00,0.00,0.21,0.08,9.95
2602,0.01,0.00,0.00,0.20,0.10,9.97
2607,0.01,0.00,0.00,0.24,0.06,9.97
2612,0.01,0.00,0.00,0.21,0.08,9.96
2617,0.01,0.00,0.00,0.23,0.08,9.96
2622,0.01,0.00,0.00,0.22,0.06,9.95
2627,0.01,0.00,0.00,0.22,0.09,9.96
2632,0.01,0.00,0.00,0.27,0.05,9.95
2637,0.01,0.00,0.00,0.23,0.07,9.95
2642,0.01,0.00,0.00,0.25,0.06,9.94
2647,0.01,0.00,0.00,0.27,0.04,9.95
2652,0.01,0.00,0.00,0.23,0.06,9.95
2657,0.01,0.00,0.00,0.28,0.05,9.95
2662,0.01,0.00,0.00,0.24,0.05,9.95
2667,0.01,0.00,0.00,0.24,0.07,9.94
2672,0.01,0.00,0.00,0.28,0.04,9.96
2678,0.01,0.00,0.00,0.23,0.07,9.94
2683,0.01,0.00,0.00,0.26,0.07,9.96
2688,0.01,0.00,0.00,0.24,0.06,9.95
2693,0.01,0.00,0.00,0.22,0.10,9.96
2698,0.01,0.00,0.00,0.26,0.08,9.96
2703,0.01,0.00,0.00,0.21,0.09,9.95
2708,0.01,0.00,0.00,0.24,0.10,9.96
2713,0.01,0.00,0.00,0.23,0.08,9.97
2718,0.01,0.00,0.00,0.20,0.10,9.97
2723,0.01,0.00,0.00,0.24,0.09,9.98
2728,0.01,0.00,0.00,0.22,0.10,9.98
2733,0.01,0.00,0.00,0.22,0.11,9.96
2738,0.01,0.00,0.00,0.24,0.07,9.98
2743,0.01,0.00,0.00,0.20,0.09,9.96
2748,0.01,0.00,0.00,0.23,0.08,9.98
2753,0.01,0.00,0.00,0.22,0.07,9.98
2758,0.01,0.00,0.00,0.21,0.08,9.96
2763,0.01,0.00,0.00,0.24,0.07,9.95
2768,0.01,0.00,0.00,0.21,0.07,9.96
2773,0.01,0.00,0.00,0.24,0.07,9.97
2778,0.01,0.00,0.00,0.24,0.06,9.94
2783,0.01,0.00,0.00,0.20,0.09,9.94
2788,0.01,0.00,0.00,0.26,0.04,9.96
2794,0.01,0.00,0.00,0.22,0.05,9.95
2799,0.01,0.00,0.00,0.24,0.06,9.94
2804,0.01,0.00,0.00,0.25,0.05,9.95
2809,0.01,0.00,0.00,0.22,0.08,9.95
2814,0.01,0.00,0.00,0.26,0.06,9.96
2819,0.01,0.00,0.00,0.23,0.06,9.96
2824,0.01,0.00,0.00,0.24,0.06,9.93
2829,0.01,0.00,0.00,0.26,0.05,9.95
2834,0.01,0.00,0.00,0.21,0.08,9.94
2839,0.01,0.00,0.00,0.25,0.07,9.96
2844,0.01,0.00,0.01,0.24,0.06,9.94
2849,0.01,0.00,0.00,0.23,0.08,9.94
2854,0.01,0.00,0.00,0.26,0.06,9.96
2859,0.01,0.00,0.00,0.20,0.06,9.93
2864,0.01,0.00,0.00,0.24,0.06,9.96
2869,0.01,0.00,0.00,0.23,0.04,9.95
2874,0.01,0.00,0.00,0.21,0.09,9.94
2879,0.01,0.00,0.00,0.25,0.06,9.95
2884,0.01,0.00,0.00,0.20,0.06,9.94
2889,0.01,0.00,0.00,0.22,0.07,9.95
2894,0.01,0.00,0.00,0.23,0.05,9.96
2899,0.01,0.00,0.00,0.20,0.08,9.94
2904,0.01,0.00,0.00,0.24,0.07,9.95
2910,0.01,0.00,0.00,0.22,0.06,9.96
2915,0.01,0.00,0.00,0.21,0.09,9.96
2920,0.01,0.00,0.01,0.23,0.06,9.96
2925,0.01,0.00,0.00,0.18,0.09,9.96
2930,0.01,0.00,0.00,0.22,0.08,9.97
2935,0.01,0.00,0.00,0.21,0.06,9.96
2940,0.01,0.00,0.00,0.19,0.10,9.96
2945,0.01,0.00,0.00,0.22,0.06,9.97
2950,0.01,0.00,0.00,0.17,0.07,9.95
2955,0.01,0.00,0.00,0.21,0.09,9.96
2960,0.01,0.00,0.00,0.21,0.06,9.95
2965,0.01,0.00,0.00,0.19,0.09,9.96
2970,0.01,0.00,0.00,0.23,0.07,9.96
2975,0.01,0.00,0.00,0.20,0.08,9.95
2980,0.01,0.00,0.00,0.21,0.08,9.97
2985,0.01,0.00,0.00,0.23,0.05,9.96
2990,0.01,0.00,0.00,0.19,0.08,9.94
2995,0.01,0.00,0.00,0.23,0.06,9.96
3000,0.01,0.00,0.00,0.22,0.06,9.95
3005,0.01,0.00,0.00,0.22,0.08,9.95
3010,0.01,0.00,0.00,0.24,0.06,9.95
3015,0.01,0.00,0.00,0.20,0.07,9.94
3021,0.01,0.00,0.00,0.25,0.06,9.95
3026,0.01,0.00,0.00,0.24,0.05,9.95
3031,0.01,0.00,0.00,0.22,0.08,9.94
3036,0.01,0.00,0.00,0.27,0.05,9.96
3041,0.01,0.00,0.00,0.22,0.07,9.95
3046,0.01,0.00,0.00,0.24,0.07,9.95
3051,0.01,0.00,0.00,0.25,0.06,9.95
3056,0.01,0.00,0.00,0.23,0.09,9.95
3061,0.01,0.00,0.00,0.26,0.07,9.94
3066,0.01,0.00,0.00,0.23,0.07,9.96
3071,0.01,0.00,0.00,0.22,0.09,9.96
3076,0.01,0.00,0.00,0.25,0.07,9.96
3081,0.01,0.00,0.00,0.19,0.09,9.95
3086,0.01,0.00,0.00,0.23,0.07,9.97
3091,0.01,0.00,0.00,0.23,0.06,9.95
3096,0.01,0.00,0.00,0.23,0.09,9.96
3101,0.01,0.00,0.00,0.26,0.06,9.96
3106,0.01,0.00,0.00,0.22,0.08,9.95
3111,0.01,0.00,0.00,0.25,0.07,9.96
3116,0.01,0.00,0.00,0.24,0.05,9.95
3121,0.01,0.00,0.00,0.22,0.09,9.96
3126,0.01,0.00,0.00,0.26,0.06,9.96
3131,0.01,0.00,0.00,0.23,0.06,9.96
3137,0.01,0.00,0.00,0.25,0.09,9.95
3142,0.01,0.00,0.00,0.25,0.05,9.96
3147,0.01,0.00,0.00,0.23,0.09,9.96
3152,0.01,0.00,0.00,0.25,0.06,9.95
3157,0.01,0.00,0.00,0.25,0.06,9.96
3162,0.01,0.00,0.00,0.24,0.10,9.96
3167,0.01,0.00,0.00,0.25,0.06,9.96
3172,0.01,0.00,0.00,0.21,0.09,9.96
3177,0.01,0.00,0.00,0.24,0.08,9.97
3182,0.01,0.00,0.00,0.23,0.05,9.95
3187,0.01,0.00,0.00,0.20,0.09,9.94
3192,0.01,0.00,0.00,0.24,0.06,9.95
3197,0.01,0.00,0.00,0.20,0.07,9.95
3202,0.01,0.00,0.00,0.22,0.08,9.96
3207,0.01,0.00,0.00,0.23,0.05,9.94
3212,0.01,0.00,0.00,0.19,0.07,9.95
3217,0.01,0.00,0.00,0.23,0.06,9.96
3222,0.01,0.00,0.00,0.21,0.04,9.95
3227,0.01,0.00,0.00,0.21,0.06,9.95
3232,0.01,0.00,0.00,0.24,0.05,9.95
3237,0.01,0.00,0.00,0.19,0.07,9.94
3242,0.01,0.00,0.00,0.24,0.05,9.95
3247,0.01,0.00,0.00,0.22,0.06,9.96
3253,0.01,0.00,0.00,0.22,0.09,9.95
3258,0.01,0.00,0.00,0.25,0.06,9.96
3263,0.01,0.00,0.00,0.21,0.08,9.96
3268,0.01,0.00,0.00,0.24,0.07,9.96
3273,0.01,0.00,0.00,0.25,0.06,9.96
3278,0.01,0.00,0.00,0.21,0.11,9.95
3283,0.01,0.00,0.00,0.26,0.06,9.97
3288,0.01,0.00,0.00,0.22,0.05,9.95
3293,0.01,0.00,0.00,0.23,0.09,9.96
3298,0.01,0.00,0.00,0.26,0.05,9.96
3303,0.01,0.00,0.00,0.23,0.09,9.96
3308,0.01,0.00,0.00,0.27,0.08,9.97
3313,0.01,0.00,0.00,0.24,0.06,9.94
3318,0.01,0.00,0.00,0.23,0.07,9.95
3323,0.01,0.00,0.00,0.26,0.05,9.95
3328,0.01,0.00,0.00,0.22,0.08,9.95
3333,0.01,0.00,0.00,0.25,0.06,9.96
3338,0.01,0.00,0.00,0.24,0.04,9.94
3343,0.01,0.00,0.00,0.22,0.07,9.94
3348,0.01,0.00,0.00,0.25,0.06,9.95
3353,0.01,0.00,0.00,0.21,0.06,9.93
3358,0.01,0.00,0.00,0.23,0.08,9.94
3363,0.01,0.00,0.00,0.25,0.05,9.94
3369,0.01,0.00,0.00,0.20,0.09,9.94
3374,0.01,0.00,0.00,0.25,0.06,9.95
3379,0.01,0.00,0.01,0.21,0.06,9.96
3384,0.01,0.00,0.00,0.21,0.09,9.95
3389,0.01,0.00,0.00,0.23,0.05,9.95
3394,0.01,0.00,0.00,0.19,0.09,9.96
3399,0.01,0.00,0.00,0.23,0.07,9.96
3404,0.01,0.00,0.00,0.20,0.06,9.95
3409,0.01,0.00,0.00,0.20,0.08,9.95
3414,0.01,0.00,0.00,0.22,0.06,9.96
3419,0.01,0.00,0.00,0.18,0.07,9.95
3424,0.01,0.00,0.00,0.20,0.07,9.96
3429,0.01,0.00,0.00,0.20,0.05,9.94
3434,0.01,0.00,0.00,0.17,0.08,9.95
3439,0.01,0.00,0.00,0.20,0.05,9.96
3444,0.01,0.00,0.00,0.17,0.06,9.95
3449,0.01,0.00,0.00,0.18,0.09,9.96
3454,0.01,0.00,0.00,0.22,0.06,9.95
3459,0.01,0.00,0.00,0.17,0.10,9.96
3464,0.01,0.00,0.00,0.22,0.08,9.96
3469,0.01,0.00,0.00,0.20,0.06,9.95
3474,0.01,0.00,0.00,0.20,0.10,9.96
3480,0.01,0.00,0.00,0.22,0.06,9.96
3485,0.01,0.00,0.00,0.19,0.08,9.94
3490,0.01,0.00,0.00,0.24,0.08,9.96
3495,0.01,0.00,0.00,0.25,0.07,9.96
3500,0.01,0.00,0.00,0.23,0.10,9.96
3505,0.01,0.00,0.00,0.27,0.07,9.96
3510,0.01,0.00,0.00,0.23,0.07,9.95
3515,0.01,0.00,0.00,0.26,0.08,9.94
3520,0.01,0.00,0.00,0.28,0.06,9.95
3525,0.01,0.00,0.00,0.24,0.08,9.93
3530,0.01,0.00,0.00,0.29,0.05,9.96
3535,0.01,0.00,0.00,0.26,0.06,9.94
3540,0.01,0.00,0.00,0.27,0.08,9.95
3545,0.01,0.00,0.00,0.30,0.04,9.95
3550,0.01,0.00,0.00,0.27,0.06,9.94
3555,0.01,0.00,0.00,0.30,0.06,9.94
3560,0.01,0.00,0.00,0.28,0.06,9.96
3565,0.01,0.00,0.00,0.27,0.08,9.95
3570,0.01,0.00,0.00,0.31,0.06,9.97
3575,0.01,0.00,0.01,0.25,0.08,9.95
3580,0.01,0.00,0.00,0.28,0.07,9.95
3585,0.01,0.00,0.00,0.29,0.07,9.96
3590,0.01,0.00,0.00,0.24,0.10,9.95
3596,0.01,0.00,0.00,0.29,0.08,9.97
3601,0.01,0.00,0.00,0.25,0.09,9.95
3606,0.01,0.00,0.00,0.26,0.11,9.97
3611,0.01,0.00,0.00,0.29,0.09,9.97
3616,0.01,0.00,0.00,0.23,0.11,9.96
3621,0.01,0.00,0.00,0.28,0.10,9.98
3626,0.01,0.00,0.00,0.25,0.08,9.97
3631,0.01,0.00,0.00,0.24,0.13,9.98
3636,0.01,0.00,0.00,0.26,0.08,9.97
3641,0.01,0.00,0.00,0.22,0.09,9.97
3646,0.01,0.00,0.00,0.25,0.09,9.96
3651,0.01,0.00,0.00,0.25,0.06,9.96
3656,0.01,0.00,0.00,0.22,0.09,9.96
3661,0.01,0.00,0.00,0.25,0.08,9.95
3666,0.01,0.00,0.00,0.22,0.07,9.95
3671,0.01,0.00,0.01,0.22,0.06,9.94
3676,0.01,0.00,0.01,0.24,0.05,9.95
3681,0.01,0.00,0.01,0.19,0.07,9.97
3686,0.01,0.00,0.01,0.22,0.07,9.96
3691,0.01,0.00,0.01,0.20,0.06,9.95
3696,0.01,0.00,0.01,0.19,0.08,9.96
3701,0.01,0.00,0.01,0.21,0.06,9.96
3706,0.01,0.00,0.01,0.16,0.08,9.95
3712,0.01,0.00,0.00,0.18,0.08,9.96
3717,0.01,0.00,0.01,0.18,0.05,9.94
3722,0.01,0.00,0.01,0.16,0.09,9.95
3727,0.01,0.00,0.01,0.19,0.06,9.96
3732,0.01,0.00,0.00,0.16,0.07,9.95
3737,0.01,0.00,0.00,0.17,0.08,9.94
3742,0.01,0.00,0.00,0.19,0.04,9.95
3747,0.01,0.00,0.00,0.15,0.07,9.94
3752,0.01,0.00,0.00,0.20,0.04,9.96
3757,0.01,0.00,0.00,0.17,0.04,9.93
3762,0.01,0.00,0.00,0.18,0.06,9.94
3767,0.01,0.00,0.00,0.22,0.03,9.95
3772,0.01,0.00,0.00,0.17,0.06,9.94
3777,0.01,0.00,0.00,0.21,0.05,9.95
3782,0.01,0.00,0.00,0.20,0.03,9.94
3787,0.01,0.00,0.00,0.18,0.06,9.93
3792,0.01,0.00,0.00,0.21,0.03,9.95
3797,0.01,0.00,0.00,0.18,0.05,9.94
3802,0.01,0.00,0.00,0.20,0.07,9.95
3807,0.01,0.00,0.00,0.21,0.05,9.95
3812,0.01,0.00,0.00,0.18,0.10,9.96
3817,0.01,0.00,0.00,0.20,0.07,9.97
3822,0.01,0.00,0.00,0.18,0.08,9.97
3828,0.01,0.00,0.00,0.20,0.10,9.96
3833,0.01,0.00,0.00,0.21,0.08,9.97
3838,0.01,0.00,0.00,0.17,0.11,9.95
3843,0.01,0.00,0.00,0.22,0.09,9.97
3848,0.01,0.00,0.00,0.20,0.09,9.96
3853,0.01,0.00,0.00,0.17,0.10,9.95
3858,0.01,0.00,0.00,0.23,0.07,9.97
3863,0.01,0.00,0.00,0.18,0.07,9.94
3868,0.01,0.00,0.00,0.22,0.06,9.96
3873,0.01,0.00,0.00,0.22,0.04,9.95
3878,0.01,0.00,0.00,0.20,0.07,9.94
3883,0.01,0.00,0.00,0.25,0.05,9.94
3888,0.01,0.00,0.00,0.23,0.05,9.93
3893,0.01,0.00,0.00,0.24,0.06,9.94
3898,0.01,0.00,0.00,0.26,0.03,9.93
3903,0.01,0.00,0.00,0.21,0.06,9.94
3908,0.01,0.00,0.00,0.26,0.06,9.95
3913,0.01,0.00,0.00,0.25,0.06,9.94
3918,0.02,0.00,0.00,0.25,0.07,9.95
3923,0.01,0.00,0.00,0.28,0.06,9.96
3928,0.01,0.00,0.00,0.24,0.07,9.94
3933,0.01,0.00,0.00,0.27,0.08,9.95
3939,0.01,0.00,0.00,0.26,0.06,9.95
3944,0.01,0.00,0.00,0.24,0.09,9.95
3949,0.01,0.00,0.00,0.29,0.07,9.96
3954,0.01,0.00,0.00,0.24,0.09,9.94
3959,0.01,0.00,0.00,0.28,0.09,9.96
3964,0.01,0.00,0.00,0.28,0.07,9.95
3969,0.01,0.00,0.00,0.26,0.10,9.94
3974,0.01,0.00,0.00,0.30,0.06,9.95
3979,0.01,0.00,0.00,0.28,0.08,9.95
3984,0.01,0.00,0.00,0.27,0.09,9.94
3989,0.01,0.00,0.00,0.31,0.06,9.96
3994,0.01,0.00,0.00,0.27,0.09,9.96
3999,0.01,0.00,0.00,0.31,0.09,9.96
4004,0.01,0.00,0.00,0.30,0.08,9.95
4009,0.01,0.00,0.00,0.29,0.10,9.96
4014,0.01,0.00,0.00,0.32,0.07,9.97
4019,0.01,0.00,0.00,0.28,0.09,9.95
4024,0.01,0.00,0.00,0.30,0.11,9.97
4029,0.01,0.00,0.00,0.28,0.09,9.95
4034,0.01,0.00,0.00,0.26,0.13,9.96
4039,0.01,0.00,0.00,0.30,0.10,9.98
4044,0.01,0.00,0.00,0.25,0.11,9.95
4049,0.01,0.00,0.01,0.26,0.12,9.96
4055,0.01,0.00,0.01,0.27,0.09,9.97
4060,0.01,0.00,0.00,0.23,0.10,9.95
4065,0.01,0.00,0.01,0.27,0.09,9.96
4070,0.01,0.00,0.01,0.24,0.09,9.95
4075,0.01,0.00,0.01,0.24,0.10,9.95
4080,0.01,0.00,0.01,0.25,0.06,9.97
4085,0.01,0.00,0.01,0.20,0.08,9.94
4090,0.01,0.00,0.01,0.23,0.06,9.96
4095,0.01,0.00,0.01,0.22,0.04,9.94
4100,0.01,0.00,0.01,0.18,0.07,9.94
4105,0.01,0.00,0.01,0.22,0.05,9.96
4110,0.01,0.00,0.01,0.19,0.05,9.94
4115,0.01,0.00,0.01,0.20,0.06,9.94
4120,0.01,0.00,0.01,0.19,0.03,9.94
4125,0.01,0.00,0.01,0.16,0.07,9.95
4130,0.01,0.00,0.01,0.20,0.05,9.95
4135,0.01,0.00,0.01,0.17,0.06,9.94
4140,0.01,0.00,0.01,0.17,0.08,9.95
4145,0.01,0.00,0.01,0.19,0.05,9.96
4150,0.01,0.00,0.01,0.16,0.09,9.95
4155,0.01,0.00,0.01,0.19,0.08,9.96
4160,0.01,0.00,0.01,0.17,0.08,9.96
4165,0.01,0.00,0.01,0.15,0.10,9.95
4171,0.01,0.00,0.01,0.18,0.07,9.96
4176,0.01,0.00,0.01,0.15,0.08,9.94
4181,0.01,0.00,0.00,0.19,0.08,9.97
4186,0.01,0.00,0.01,0.19,0.06,9.96
4191,0.01,0.00,0.00,0.16,0.08,9.95
4196,0.01,0.00,0.00,0.21,0.06,9.96
4201,0.01,0.00,0.00,0.17,0.06,9.94
4206,0.01,0.00,0.00,0.20,0.08,9.96
4211,0.01,0.00,0.00,0.22,0.04,9.93
4216,0.01,0.00,0.00,0.19,0.06,9.94
4221,0.01,0.00,0.00,0.24,0.05,9.96
4226,0.01,0.00,0.00,0.21,0.06,9.94
4231,0.01,0.00,0.00,0.20,0.08,9.94
4236,0.01,0.00,0.00,0.24,0.04,9.94
4241,0.01,0.00,0.00,0.20,0.08,9.94
4246,0.01,0.00,0.00,0.24,0.06,9.95
4251,0.01,0.00,0.00,0.23,0.04,9.93
4256,0.01,0.00,0.00,0.21,0.09,9.94
4261,0.01,0.00,0.00,0.25,0.06,9.96
4266,0.01,0.00,0.00,0.20,0.07,9.95
4271,0.01,0.00,0.00,0.23,0.08,9.96
4276,0.01,0.00,0.00,0.23,0.06,9.95
4281,0.01,0.00,0.00,0.21,0.08,9.95
4287,0.01,0.00,0.00,0.26,0.06,9.95
4292,0.01,0.00,0.00,0.23,0.06,9.95
4297,0.01,0.00,0.00,0.25,0.07,9.95
4302,0.01,0.00,0.00,0.26,0.04,9.94
4307,0.01,0.00,0.00,0.23,0.07,9.94
4312,0.01,0.00,0.00,0.27,0.06,9.94
4317,0.01,0.00,0.00,0.25,0.04,9.95
4322,0.01,0.00,0.00,0.24,0.07,9.95
4327,0.01,0.00,0.00,0.26,0.04,9.95
4332,0.02,0.00,0.00,0.23,0.07,9.95
4337,0.01,0.00,0.00,0.26,0.06,9.95
4342,0.01,0.00,0.00,0.26,0.04,9.94
4347,0.01,0.00,0.00,0.23,0.08,9.95
4352,0.01,0.00,0.00,0.27,0.07,9.96
4357,0.01,0.00,0.00,0.22,0.07,9.95
4362,0.02,0.00,0.00,0.25,0.10,9.96
4367,0.01,0.00,0.00,0.25,0.07,9.96
4372,0.01,0.00,0.00,0.21,0.10,9.96
4377,0.01,0.00,0.00,0.26,0.10,9.97
4382,0.01,0.00,0.00,0.23,0.10,9.96
4387,0.01,0.00,0.00,0.22,0.11,9.97
4392,0.01,0.00,0.00,0.25,0.08,9.96
4398,0.01,0.00,0.00,0.21,0.11,9.96
4403,0.01,0.00,0.00,0.25,0.10,9.96
4408,0.01,0.00,0.00,0.23,0.08,9.97
4413,0.01,0.00,0.00,0.21,0.10,9.96
4418,0.01,0.00,0.00,0.25,0.07,9.96
4423,0.01,0.00,0.00,0.22,0.08,9.96
4428,0.01,0.00,0.00,0.24,0.09,9.97
4433,0.01,0.00,0.00,0.25,0.06,9.95
4438,0.01,0.00,0.00,0.20,0.10,9.95
4443,0.01,0.00,0.00,0.26,0.06,9.97
4448,0.01,0.00,0.00,0.22,0.07,9.94
4453,0.01,0.00,0.00,0.25,0.07,9.95
4458,0.01,0.00,0.00,0.25,0.05,9.94
4463,0.01,0.00,0.00,0.21,0.09,9.94
4468,0.01,0.00,0.00,0.27,0.07,9.95
4473,0.01,0.00,0.00,0.24,0.06,9.94
4478,0.01,0.00,0.00,0.24,0.08,9.95
4483,0.01,0.00,0.00,0.27,0.04,9.95
4488,0.01,0.00,0.00,0.23,0.07,9.95
4493,0.01,0.00,0.00,0.25,0.08,9.96
4498,0.01,0.00,0.00,0.25,0.06,9.96
4503,0.01,0.00,0.00,0.22,0.09,9.93
4508,0.01,0.00,0.01,0.27,0.06,9.96
4514,0.01,0.00,0.00,0.23,0.07,9.94
4519,0.01,0.00,0.00,0.25,0.08,9.96
4524,0.01,0.00,0.00,0.26,0.06,9.96
4529,0.01,0.00,0.00,0.23,0.08,9.95
4534,0.01,0.00,0.01,0.27,0.07,9.96
4539,0.01,0.00,0.00,0.22,0.08,9.94
4544,0.01,0.00,0.00,0.23,0.09,9.95
4549,0.01,0.00,0.00,0.26,0.06,9.95
4554,0.01,0.00,0.01,0.21,0.09,9.95
4559,0.01,0.00,0.01,0.25,0.08,9.97
4564,0.01,0.00,0.01,0.22,0.06,9.96
4569,0.01,0.00,0.00,0.22,0.09,9.96
4574,0.01,0.00,0.01,0.24,0.05,9.96
4579,0.01,0.00,0.00,0.21,0.08,9.96
4584,0.01,0.00,0.00,0.23,0.08,9.95
4589,0.01,0.00,0.01,0.22,0.07,9.95
4594,0.01,0.00,0.01,0.19,0.08,9.95
4599,0.01,0.00,0.01,0.23,0.07,9.95
4604,0.01,0.00,0.00,0.19,0.07,9.95
4609,0.01,0.00,0.00,0.21,0.09,9.96
4614,0.01,0.00,0.00,0.24,0.07,9.96
4619,0.01,0.00,0.00,0.19,0.09,9.96
4624,0.01,0.00,0.00,0.24,0.08,9.97
4630,0.01,0.00,0.00,0.21,0.07,9.96
4635,0.01,0.00,0.00,0.21,0.09,9.96
4640,0.01,0.00,0.00,0.23,0.05,9.95
4645,0.01,0.00,0.00,0.20,0.08,9.95
4650,0.01,0.00,0.00,0.24,0.06,9.96
4655,0.01,0.00,0.00,0.23,0.05,9.95
4660,0.01,0.00,0.00,0.21,0.06,9.95
4665,0.01,0.00,0.00,0.24,0.05,9.94
4670,0.01,0.00,0.00,0.20,0.05,9.95
4675,0.01,0.00,0.00,0.24,0.06,9.95
4680,0.01,0.00,0.00,0.24,0.03,9.94
4685,0.01,0.00,0.00,0.20,0.07,9.94
4690,0.01,0.00,0.00,0.24,0.05,9.95
4695,0.01,0.00,0.00,0.21,0.06,9.94
4700,0.01,0.00,0.00,0.21,0.07,9.94
4705,0.01,0.00,0.00,0.23,0.05,9.95
4710,0.01,0.00,0.00,0.18,0.08,9.95
4715,0.01,0.00,0.00,0.24,0.08,9.97
4720,0.01,0.00,0.00,0.21,0.06,9.94
4725,0.01,0.00,0.00,0.20,0.09,9.96
4730,0.01,0.00,0.00,0.24,0.06,9.95
4735,0.01,0.00,0.00,0.19,0.09,9.97
4740,0.01,0.00,0.00,0.22,0.08,9.96
4746,0.01,0.00,0.00,0.22,0.06,9.95
4751,0.01,0.00,0.00,0.20,0.09,9.95
4756,0.01,0.00,0.00,0.23,0.08,9.97
4761,0.01,0.00,0.00,0.20,0.08,9.96
4766,0.01,0.00,0.00,0.22,0.08,9.96
4771,0.01,0.00,0.00,0.24,0.06,9.96
4776,0.01,0.00,0.00,0.21,0.10,9.96
4781,0.01,0.00,0.00,0.25,0.07,9.96
4786,0.01,0.00,0.00,0.22,0.06,9.96
4791,0.01,0.00,0.00,0.22,0.08,9.96
4796,0.01,0.00,0.00,0.26,0.06,9.96
4801,0.01,0.00,0.00,0.21,0.09,9.96
4806,0.01,0.00,0.00,0.25,0.08,9.95
4811,0.01,0.00,0.00,0.23,0.06,9.94
4816,0.01,0.00,0.00,0.23,0.09,9.95
4821,0.01,0.00,0.00,0.27,0.07,9.96
4826,0.01,0.00,0.00,0.23,0.08,9.95
4831,0.01,0.00,0.00,0.26,0.07,9.96
4836,0.01,0.00,0.00,0.26,0.06,9.95
4841,0.01,0.00,0.00,0.22,0.09,9.94
4846,0.01,0.00,0.00,0.26,0.06,9.95
4851,0.01,0.00,0.00,0.23,0.08,9.95
4856,0.01,0.00,0.00,0.25,0.07,9.95
4862,0.01,0.00,0.00,0.26,0.05,9.95
4867,0.01,0.00,0.00,0.23,0.08,9.94
4872,0.01,0.00,0.00,0.27,0.07,9.94
4877,0.01,0.00,0.00,0.24,0.06,9.95
4882,0.01,0.00,0.00,0.23,0.08,9.95
4887,0.01,0.00,0.00,0.26,0.05,9.95
4892,0.01,0.00,0.00,0.22,0.09,9.95
4897,0.01,0.00,0.00,0.25,0.08,9.96
4902,0.01,0.00,0.00,0.23,0.06,9.96
4907,0.01,0.00,0.00,0.21,0.09,9.95
4912,0.01,0.00,0.00,0.27,0.06,9.97
4917,0.01,0.00,0.00,0.22,0.08,9.97
4922,0.01,0.00,0.00,0.25,0.08,9.95
4927,0.01,0.00,0.00,0.25,0.06,9.95
4932,0.01,0.00,0.00,0.21,0.10,9.95
4937,0.01,0.00,0.00,0.25,0.08,9.97
4942,0.01,0.00,0.00,0.22,0.08,9.96
4947,0.01,0.00,0.00,0.22,0.09,9.95
4952,0.01,0.00,0.00,0.25,0.07,9.96
4957,0.01,0.00,0.00,0.20,0.10,9.96
4962,0.01,0.00,0.00,0.25,0.09,9.96
4967,0.01,0.00,0.00,0.23,0.06,9.96
4973,0.01,0.00,0.00,0.21,0.09,9.95
4978,0.01,0.00,0.00,0.26,0.07,9.96
4983,0.01,0.00,0.00,0.20,0.08,9.95
4988,0.01,0.00,0.00,0.24,0.07,9.96
4993,0.01,0.00,0.00,0.24,0.06,9.95
4998,0.01,0.00,0.00,0.22,0.09,9.94
5003,0.01,0.00,0.00,0.26,0.07,9.95
5008,0.01,0.00,0.00,0.24,0.08,9.95
5013,0.01,0.00,0.00,0.24,0.07,9.95
5018,0.01,0.00,0.00,0.26,0.05,9.95
5023,0.01,0.00,0.00,0.21,0.08,9.94
5028,0.01,0.00,0.00,0.25,0.05,9.95
5033,0.01,0.00,0.00,0.22,0.06,9.95
5038,0.01,0.00,0.01,0.20,0.07,9.95
5043,0.01,0.00,0.00,0.23,0.05,9.96
5048,0.01,0.00,0.00,0.17,0.08,9.95
5053,0.01,0.00,0.00,0.20,0.07,9.96
5058,0.01,0.00,0.00,0.16,0.05,9.96
5063,0.01,0.00,0.00,0.16,0.08,9.95
5068,0.01,0.00,0.00,0.21,0.05,9.96
5073,0.01,0.00,0.00,0.16,0.07,9.95
5078,0.01,0.00,0.00,0.19,0.09,9.96
5083,0.01,0.00,0.00,0.22,0.06,9.96
5089,0.01,0.00,0.00,0.20,0.09,9.95
5094,0.01,0.00,0.00,0.27,0.07,9.97
5099,0.01,0.00,0.00,0.28,0.09,9.96
5104,0.01,0.00,0.00,0.34,0.11,9.97
5109,0.01,0.00,0.00,0.35,0.07,9.95
5114,0.01,-0.00,0.01,0.30,0.12,9.95
5119,0.01,-0.00,0.01,0.35,0.10,9.97
5124,0.01,-0.00,0.01,0.37,0.11,9.96
5129,0.01,-0.00,0.01,0.37,0.11,9.94
5134,0.01,-0.00,0.01,0.53,0.11,9.98
5139,0.01,-0.00,0.01,0.64,0.17,9.96
5144,0.01,-0.00,0.01,0.55,0.12,9.97
5149,0.01,-0.00,0.01,0.52,0.09,9.95
5154,0.01,-0.00,0.01,0.41,0.14,9.98
5159,0.01,-0.00,0.01,0.40,0.05,9.92
5164,0.01,-0.00,0.01,0.31,0.03,9.94
5169,0.01,-0.00,0.01,0.25,0.00,9.92
5174,0.01,0.00,0.01,0.23,-0.01,9.91
5179,0.01,0.00,0.01,0.14,0.03,9.93
5184,0.01,0.00,0.01,0.12,0.02,9.94
5189,0.01,0.00,0.01,0.07,0.05,9.93
5194,0.01,0.00,0.00,0.04,0.08,9.96
5199,0.01,0.00,0.00,0.03,0.04,9.96
5205,0.01,0.00,0.00,-0.01,0.04,9.95
5210,0.01,0.00,0.00,-0.00,0.06,9.95
5215,0.01,0.00,0.01,-0.02,0.05,9.94
5220,0.01,0.00,0.01,-0.06,0.11,9.96
5225,0.01,0.00,0.01,-0.02,0.08,9.95
5230,0.01,0.00,0.01,-0.03,0.07,9.96
5235,0.01,0.00,0.01,0.01,0.07,9.94
5240,0.01,0.00,0.00,0.03,0.04,9.96
5245,0.01,0.00,0.01,0.06,0.04,9.94
5250,0.01,0.00,0.00,0.09,0.03,9.96
5255,0.01,0.00,0.00,0.13,0.04,9.93
5260,0.01,0.00,0.00,0.17,0.04,9.94
5265,0.01,0.00,0.00,0.22,0.02,9.93
5270,0.01,0.00,0.00,0.23,0.07,9.94
5275,0.01,0.00,0.00,0.29,0.08,9.95
5280,0.01,0.00,0.00,0.30,0.08,9.96
5285,0.01,0.00,0.00,0.32,0.11,9.97
5290,0.01,0.00,0.00,0.34,0.09,9.96
5295,0.01,0.00,0.00,0.32,0.11,9.95
5300,0.01,0.00,0.00,0.35,0.12,9.98
5305,0.01,0.00,0.00,0.35,0.11,9.95
5310,0.01,0.00,0.00,0.34,0.14,9.98
5315,0.01,0.00,0.00,0.35,0.11,9.98
5321,0.01,0.00,0.00,0.32,0.10,9.97
5326,0.01,0.00,0.00,0.31,0.09,9.97
5331,0.01,0.00,0.00,0.28,0.06,9.94
5336,0.01,0.00,0.00,0.26,0.07,9.95
5341,0.01,0.00,0.00,0.27,0.05,9.94
5346,0.01,0.00,0.00,0.24,0.02,9.94
5351,0.01,0.00,0.00,0.23,0.03,9.92
5356,0.01,0.00,0.00,0.24,0.01,9.93
5361,0.01,0.00,0.00,0.23,0.01,9.89
5366,0.01,0.00,0.00,0.21,0.02,10.00
5371,0.02,0.00,0.00,0.23,-0.00,9.89
5376,0.01,0.00,0.00,0.21,0.04,9.94
5381,0.01,0.00,0.00,0.23,-0.01,9.94
5386,0.02,0.00,0.00,0.22,0.07,9.97
5391,0.01,0.00,0.00,0.25,0.03,9.88
5396,0.02,0.00,0.00,0.22,0.06,10.00
5401,0.02,0.00,0.00,0.20,0.08,9.92
5406,0.01,0.00,0.00,0.23,0.08,9.99
5411,0.01,0.00,0.00,0.19,0.08,9.93
5416,0.01,0.00,0.00,0.19,0.10,9.98
5421,0.01,0.00,0.00,0.20,0.09,9.95
5426,0.01,0.00,0.00,0.18,0.11,9.96
5431,0.01,0.00,0.00,0.20,0.09,9.96
5437,0.01,0.00,0.00,0.18,0.09,9.97
5442,0.01,0.00,0.00,0.17,0.11,9.97
5447,0.01,0.00,0.00,0.19,0.08,9.98
5452,0.01,0.00,0.00,0.16,0.10,9.95
5457,0.01,0.00,0.00,0.18,0.08,9.97
5462,0.01,0.00,0.00,0.19,0.07,9.97
5467,0.01,0.00,0.00,0.20,0.09,9.96
5472,0.01,0.00,0.00,0.22,0.08,9.96
5477,0.01,0.00,0.00,0.20,0.07,9.95
5482,0.01,0.00,0.00,0.23,0.09,9.97
5487,0.01,0.00,0.00,0.24,0.07,9.96
5492,0.01,0.00,0.00,0.22,0.10,9.95
5497,0.01,0.00,0.00,0.25,0.06,9.96
5502,0.01,0.00,0.00,0.24,0.08,9.96
5507,0.01,0.00,0.00,0.25,0.10,9.95
5512,0.01,0.00,0.00,0.28,0.07,9.97
5517,0.01,0.00,0.00,0.25,0.10,9.94
5522,0.01,0.00,0.00,0.28,0.08,9.97
5527,0.01,0.00,0.00,0.29,0.07,9.96
5532,0.01,0.00,0.00,0.28,0.10,9.96
5537,0.01,0.00,0.00,0.31,0.07,9.96
5542,0.01,0.00,0.00,0.29,0.09,9.96
5548,0.01,0.00,0.00,0.30,0.08,9.94
5553,0.01,0.00,0.00,0.31,0.06,9.95
5558,0.01,0.00,0.00,0.28,0.08,9.95
5563,0.01,0.00,0.00,0.31,0.04,9.96
5568,0.01,0.00,0.00,0.26,0.04,9.94
5573,0.01,0.00,0.00,0.28,0.05,9.95
5578,0.01,0.00,0.00,0.28,0.03,9.94
5583,0.01,0.00,0.00,0.24,0.05,9.92
5588,0.01,0.00,0.00,0.27,0.03,9.94
5593,0.01,0.00,0.00,0.22,0.03,9.92
5598,0.01,0.00,0.00,0.23,0.06,9.95
5603,0.01,0.00,0.00,0.23,0.03,9.93
5608,0.01,0.00,0.00,0.19,0.06,9.94
5613,0.01,0.00,0.00,0.22,0.05,9.95
5618,0.01,0.00,0.00,0.21,0.06,9.94
5623,0.01,0.00,0.00,0.19,0.09,9.95
5628,0.01,0.00,0.00,0.22,0.07,9.97
5633,0.01,0.00,0.00,0.19,0.08,9.94
5638,0.01,0.00,0.00,0.21,0.09,9.98
5643,0.01,0.00,0.00,0.22,0.09,9.96
5648,0.01,0.00,0.00,0.20,0.11,9.97
5653,0.01,0.00,0.00,0.24,0.10,9.98
5658,0.01,0.00,0.00,0.20,0.11,9.97
5664,0.01,0.00,0.00,0.23,0.11,9.98
5669,0.01,0.00,0.00,0.25,0.09,9.96
5674,0.01,0.00,0.00,0.22,0.13,9.97
5679,0.01,0.00,0.00,0.28,0.11,9.97
5684,0.01,0.00,0.00,0.24,0.10,9.96
5689,0.01,0.00,0.00,0.25,0.12,9.98
5694,0.01,0.00,0.00,0.28,0.08,9.97
5699,0.01,0.00,0.00,0.23,0.11,9.95
5704,0.01,0.00,0.00,0.28,0.09,9.94
5709,0.01,0.00,0.00,0.25,0.08,9.96
5714,0.01,0.00,0.00,0.23,0.09,9.95
5719,0.01,0.00,0.00,0.26,0.05,9.95
5724,0.01,0.00,0.00,0.20,0.06,9.94
5729,0.01,0.00,0.01,0.24,0.06,9.96
5734,0.01,0.00,0.01,0.24,0.04,9.94
5739,0.01,0.00,0.01,0.19,0.06,9.94
5744,0.01,0.00,0.01,0.23,0.06,9.94
5749,0.01,0.00,0.01,0.19,0.05,9.93
5754,0.01,0.00,0.01,0.20,0.05,9.95
5759,0.01,0.00,0.01,0.23,0.03,9.94
5764,0.01,0.00,0.00,0.20,0.06,9.93
5769,0.01,0.00,0.00,0.23,0.05,9.93
5774,0.01,0.00,0.00,0.21,0.05,9.92
5780,0.01,0.00,0.00,0.21,0.05,9.94
5785,0.01,0.00,0.00,0.23,0.04,9.94
5790,0.01,0.00,0.00,0.20,0.05,9.94
5795,0.01,0.00,0.00,0.26,0.05,9.94
5800,0.01,0.00,0.00,0.25,0.04,9.95
5805,0.01,0.00,0.00,0.24,0.07,9.94
5810,0.01,0.00,0.00,0.29,0.05,9.94
5815,0.01,0.00,0.00,0.24,0.06,9.93
5820,0.01,0.00,0.00,0.25,0.08,9.95
5825,0.01,0.00,0.00,0.28,0.06,9.95
5830,0.01,0.00,0.00,0.25,0.09,9.96
5835,0.01,0.00,0.01,0.29,0.07,9.96
5840,0.01,0.00,0.00,0.24,0.08,9.95
5845,0.01,0.00,0.01,0.24,0.11,9.97
5850,0.01,0.00,0.01,0.26,0.08,9.96
5855,0.01,0.00,0.00,0.22,0.12,9.96
5860,0.01,0.00,0.00,0.25,0.11,9.96
5865,0.01,0.00,0.00,0.21,0.10,9.97
5870,0.01,0.00,0.00,0.20,0.12,9.97
5875,0.01,0.00,0.01,0.23,0.10,9.97
5880,0.01,0.00,0.00,0.18,0.12,9.98
5885,0.01,0.00,0.00,0.22,0.11,9.98
5890,0.01,0.00,0.00,0.20,0.08,9.96
5896,0.01,0.00,0.00,0.18,0.11,9.96
5901,0.01,0.00,0.00,0.20,0.08,9.96
5906,0.01,0.00,0.00,0.18,0.08,9.96
5911,0.01,0.00,0.00,0.19,0.09,9.96
5916,0.01,0.00,0.00,0.20,0.05,9.95
5921,0.01,0.00,0.00,0.15,0.07,9.94
5926,0.01,0.00,0.00,0.21,0.04,9.95
5931,0.01,0.00,0.00,0.18,0.05,9.94
5936,0.01,0.00,0.00,0.19,0.06,9.95
5941,0.01,0.00,0.00,0.21,0.01,9.92
5946,0.01,0.00,0.00,0.18,0.04,9.93
5951,0.01,0.00,0.00,0.21,0.03,9.95
5956,0.01,0.00,0.00,0.20,0.02,9.94
5961,0.01,0.00,0.00,0.20,0.05,9.93
5966,0.01,0.00,0.00,0.24,0.02,9.93
5971,0.01,0.00,0.00,0.20,0.05,9.93
5976,0.01,0.00,0.00,0.23,0.04,9.94
5981,0.01,0.00,0.00,0.25,0.03,9.93
5986,0.01,0.00,0.00,0.22,0.07,9.93
5991,0.01,0.00,0.00,0.26,0.05,9.95
5996,0.01,0.00,0.00,0.24,0.07,9.96
6001,0.01,0.00,0.00,0.26,0.10,9.96
6007,0.01,0.00,0.00,0.29,0.05,9.95
6012,0.01,0.00,0.00,0.25,0.10,9.95
6017,0.01,0.00,0.00,0.29,0.09,9.96
6022,0.01,0.00,0.00,0.27,0.09,9.95
6027,0.01,0.00,0.00,0.27,0.11,9.96
6032,0.01,0.00,0.00,0.31,0.08,9.96
6037,0.01,0.00,0.00,0.26,0.11,9.97
6042,0.01,0.00,0.00,0.29,0.09,9.96
6047,0.01,0.00,0.00,0.28,0.09,9.96
6052,0.01,0.00,0.00,0.26,0.11,9.96
6057,0.01,0.00,0.00,0.29,0.09,9.97
6062,0.01,0.00,0.00,0.26,0.10,9.96
6067,0.01,0.00,0.00,0.26,0.09,9.96
6072,0.01,0.00,0.00,0.25,0.08,9.96
6077,0.01,0.00,0.00,0.21,0.09,9.96
6082,0.01,0.00,0.00,0.25,0.08,9.96
6087,0.01,0.00,0.00,0.21,0.08,9.96
6092,0.01,0.00,0.00,0.20,0.09,9.95
6097,0.01,0.00,0.00,0.22,0.06,9.95
6102,0.01,0.00,0.00,0.18,0.08,9.96
6107,0.01,0.00,0.00,0.22,0.06,9.95
6112,0.01,0.00,0.00,0.19,0.04,9.94
6117,0.01,0.00,0.00,0.18,0.07,9.95
6123,0.01,0.00,0.00,0.20,0.04,9.94
6128,0.01,0.00,0.00,0.17,0.06,9.95
6133,0.01,0.00,0.00,0.20,0.04,9.94
6138,0.01,0.00,0.00,0.20,0.03,9.94
6143,0.01,0.00,0.00,0.17,0.06,9.94
6148,0.01,0.00,0.00,0.22,0.05,9.94
6153,0.01,0.00,0.00,0.19,0.05,9.94
6158,0.01,0.00,0.00,0.22,0.05,9.94
6163,0.01,0.00,0.00,0.24,0.03,9.93
6168,0.01,0.00,0.00,0.21,0.07,9.93
6173,0.01,0.00,0.00,0.26,0.05,9.95
6178,0.01,0.00,0.00,0.23,0.04,9.93
6183,0.01,0.00,0.00,0.25,0.08,9.94
6188,0.01,0.00,0.00,0.27,0.04,9.94
6193,0.01,0.00,0.00,0.23,0.08,9.95
6198,0.01,0.00,0.00,0.28,0.07,9.95
6203,0.01,0.00,0.00,0.27,0.07,9.94
6208,0.01,0.00,0.00,0.25,0.11,9.95
6213,0.01,0.00,0.00,0.28,0.09,9.95
6218,0.01,0.00,0.00,0.23,0.10,9.96
6223,0.01,0.00,0.00,0.26,0.10,9.95
6228,0.01,0.00,0.00,0.26,0.09,9.97
6233,0.01,0.00,0.00,0.22,0.10,9.96
6239,0.01,0.00,0.00,0.26,0.09,9.96
6244,0.01,0.00,0.00,0.22,0.10,9.96
6249,0.01,0.00,0.00,0.24,0.11,9.97
6254,0.01,0.00,0.00,0.25,0.07,9.97
6259,0.01,0.00,0.00,0.21,0.10,9.94
6264,0.01,0.00,0.00,0.25,0.08,9.96
6269,0.01,0.00,0.00,0.23,0.06,9.95
6274,0.01,0.00,0.00,0.23,0.10,9.96
6279,0.01,0.00,0.00,0.26,0.05,9.95
6284,0.01,0.00,0.00,0.22,0.06,9.94
6289,0.01,0.00,0.00,0.25,0.07,9.95
6294,0.01,0.00,0.00,0.25,0.05,9.95
6299,0.01,0.00,0.00,0.21,0.07,9.94
6304,0.01,0.00,0.00,0.26,0.05,9.95
6309,0.01,0.00,0.00,0.23,0.06,9.94
6314,0.01,0.00,0.00,0.24,0.07,9.93
6319,0.01,0.00,0.00,0.25,0.04,9.94
6324,0.01,0.00,0.00,0.21,0.07,9.94
6329,0.01,0.00,0.01,0.27,0.04,9.95
6334,0.01,0.00,0.00,0.22,0.05,9.94
6339,0.01,0.00,0.00,0.23,0.07,9.95
6344,0.01,0.00,0.00,0.26,0.04,9.94
6349,0.01,0.00,0.00,0.21,0.07,9.95
6355,0.01,0.00,0.00,0.25,0.06,9.94
6360,0.01,0.00,0.00,0.23,0.05,9.93
6365,0.01,0.00,0.00,0.21,0.09,9.94
6370,0.01,0.00,0.00,0.24,0.05,9.96
6375,0.01,0.00,0.00,0.20,0.07,9.95
6380,0.01,0.00,0.00,0.23,0.07,9.96
6385,0.01,0.00,0.00,0.23,0.05,9.95
6390,0.01,0.00,0.00,0.19,0.09,9.95
6395,0.01,0.00,0.00,0.24,0.06,9.96
6400,0.01,0.00,0.00,0.20,0.08,9.95
6405,0.01,0.00,0.00,0.21,0.10,9.95
6410,0.01,0.00,0.00,0.24,0.07,9.96
6415,0.01,0.00,0.00,0.20,0.10,9.96
6420,0.01,0.00,0.00,0.24,0.09,9.95
6425,0.01,0.00,0.00,0.22,0.09,9.96
6430,0.01,0.00,0.00,0.22,0.10,9.98
6435,0.01,0.00,0.00,0.25,0.08,9.98
6440,0.01,0.00,0.00,0.20,0.09,9.96
6445,0.01,0.00,0.00,0.24,0.08,9.97
6450,0.01,0.00,0.00,0.23,0.07,9.96
6455,0.01,0.00,0.00,0.21,0.10,9.96
6460,0.01,0.00,0.00,0.26,0.06,9.96
6466,0.01,0.00,0.00,0.21,0.07,9.96
6471,0.01,0.00,0.00,0.25,0.07,9.96
6476,0.01,0.00,0.00,0.25,0.06,9.95
6481,0.01,0.00,0.00,0.22,0.07,9.93
6486,0.01,0.00,0.00,0.26,0.05,9.95
6491,0.01,0.00,0.00,0.23,0.05,9.95
6496,0.01,0.00,0.00,0.24,0.07,9.95
6501,0.01,0.00,0.00,0.26,0.04,9.95
6506,0.01,0.00,0.00,0.23,0.06,9.93
6511,0.01,0.00,0.00,0.26,0.05,9.96
6516,0.01,0.00,0.00,0.25,0.03,9.94
6521,0.01,0.00,0.00,0.23,0.07,9.93
6526,0.01,0.00,0.00,0.27,0.05,9.96
6531,0.01,0.00,0.00,0.22,0.06,9.95
6536,0.01,0.00,0.00,0.25,0.07,9.95
6541,0.01,0.00,0.00,0.24,0.04,9.92
6546,0.01,0.00,0.00,0.21,0.08,9.95
6551,0.01,0.00,0.00,0.26,0.05,9.96
6556,0.01,0.00,0.00,0.21,0.07,9.95
6561,0.01,0.00,0.00,0.22,0.08,9.95
6566,0.01,0.00,0.00,0.23,0.06,9.94
6571,0.01,0.00,0.00,0.19,0.09,9.95
6576,0.01,0.00,0.00,0.22,0.08,9.96
6582,0.01,0.00,0.00,0.20,0.08,9.96
6587,0.01,0.00,0.00,0.21,0.11,9.97
6592,0.01,0.00,0.00,0.24,0.07,9.97
6597,0.01,0.00,0.00,0.20,0.09,9.95
6602,0.01,0.00,0.00,0.23,0.09,9.96
6607,0.01,0.00,0.00,0.23,0.07,9.97
6612,0.01,0.00,0.00,0.19,0.10,9.96
6617,0.01,0.00,0.00,0.25,0.07,9.96
6622,0.01,0.00,0.00,0.20,0.09,9.95
6627,0.01,0.00,0.00,0.23,0.10,9.96
6632,0.01,0.00,0.00,0.23,0.06,9.96
6637,0.01,0.00,0.00,0.22,0.10,9.95
6642,0.01,0.00,0.00,0.26,0.08,9.96
6647,0.01,0.00,0.00,0.23,0.07,9.96
6652,0.01,0.00,0.00,0.24,0.09,9.96
6657,0.01,0.00,0.00,0.25,0.06,9.96
6662,0.01,0.00,0.00,0.21,0.07,9.93
6667,0.01,0.00,0.00,0.26,0.07,9.96
6672,0.01,0.00,0.00,0.24,0.06,9.96
6677,0.01,0.00,0.00,0.24,0.08,9.95
6682,0.01,0.00,0.00,0.28,0.05,9.95
6687,0.01,0.00,0.00,0.24,0.06,9.93
6692,0.01,0.00,0.00,0.27,0.06,9.95
6698,0.01,0.00,0.00,0.26,0.03,9.95
6703,0.01,0.00,0.00,0.24,0.07,9.92
6708,0.01,0.00,0.00,0.28,0.05,9.95
6713,0.01,0.00,0.00,0.25,0.06,9.94
6718,0.01,0.00,0.00,0.27,0.08,9.95
6723,0.01,0.00,0.00,0.27,0.04,9.94
6728,0.01,0.00,0.00,0.22,0.07,9.95
6733,0.01,0.00,0.00,0.27,0.06,9.96
6738,0.01,0.00,0.00,0.26,0.06,9.95
6743,0.01,0.00,0.01,0.24,0.07,9.94
6748,0.01,0.00,0.00,0.26,0.06,9.96
6753,0.01,0.00,0.01,0.21,0.09,9.95
6758,0.01,0.00,0.00,0.24,0.09,9.96
6763,0.01,0.00,0.01,0.23,0.06,9.95
6768,0.01,0.00,0.00,0.20,0.11,9.95
6773,0.01,0.00,0.00,0.23,0.07,9.97
6778,0.01,0.00,0.00,0.20,0.08,9.95
6783,0.01,0.00,0.00,0.21,0.10,9.96
6788,0.01,0.00,0.00,0.21,0.08,9.95
6793,0.01,0.00,0.00,0.17,0.11,9.97
6798,0.01,0.00,0.00,0.23,0.08,9.98
6803,0.01,0.00,0.00,0.20,0.09,9.96
6808,0.01,0.00,0.00,0.21,0.11,9.96
6814,0.01,0.00,0.00,0.22,0.07,9.96
6819,0.01,0.00,0.00,0.19,0.08,9.94
6824,0.01,0.00,0.00,0.22,0.07,9.95
6829,0.01,0.00,0.00,0.20,0.05,9.96
6834,0.01,0.00,0.00,0.21,0.08,9.95
6839,0.01,0.00,0.00,0.25,0.06,9.96
6844,0.01,0.00,0.00,0.19,0.07,9.94
6849,0.01,0.00,0.00,0.23,0.06,9.96
6854,0.01,0.00,0.00,0.23,0.06,9.95
6859,0.01,0.00,0.00,0.20,0.08,9.94
6864,0.01,0.00,0.00,0.25,0.07,9.94
6869,0.01,0.00,0.00,0.21,0.06,9.95
6874,0.01,0.00,0.00,0.23,0.08,9.95
6879,0.01,0.00,0.00,0.24,0.04,9.93
6884,0.01,0.00,0.00,0.21,0.09,9.94
6889,0.01,0.00,0.00,0.26,0.06,9.96
6894,0.01,0.00,0.00,0.24,0.06,9.95
6899,0.01,0.00,0.00,0.24,0.08,9.95
6904,0.01,0.00,0.00,0.27,0.05,9.95
6909,0.01,0.00,0.00,0.22,0.08,9.95
6914,0.01,0.00,0.00,0.27,0.07,9.96
6919,0.01,0.00,0.00,0.26,0.05,9.95
6924,0.01,0.00,0.00,0.23,0.07,9.93
6930,0.01,0.00,0.00,0.28,0.07,9.97
6935,0.01,0.00,0.00,0.24,0.07,9.95
6940,0.01,0.00,0.00,0.24,0.09,9.96
6945,0.01,0.00,0.00,0.25,0.06,9.96
6950,0.01,0.00,0.00,0.23,0.09,9.96
6955,0.01,0.00,0.00,0.26,0.08,9.96
6960,0.01,0.00,0.00,0.23,0.08,9.95
6965,0.01,0.00,0.00,0.23,0.09,9.95
6970,0.01,0.00,0.00,0.24,0.06,9.95
6975,0.01,0.00,0.00,0.20,0.09,9.97
6980,0.01,0.00,0.00,0.25,0.07,9.95
6985,0.01,0.00,0.00,0.23,0.07,9.96
6990,0.01,0.00,0.00,0.21,0.09,9.96
6995,0.01,0.00,0.00,0.23,0.08,9.98
7000,0.01,0.00,0.00,0.19,0.08,9.94
7005,0.01,0.00,0.00,0.23,0.09,9.96
7010,0.01,0.00,0.00,0.22,0.06,9.96
7015,0.01,0.00,0.00,0.19,0.09,9.96
7020,0.01,0.00,0.00,0.25,0.08,9.96
7025,0.01,0.00,0.00,0.20,0.07,9.94
7030,0.01,0.00,0.00,0.22,0.09,9.96
7035,0.01,0.00,0.00,0.23,0.06,9.96
7041,0.01,0.00,0.00,0.20,0.09,9.95
7046,0.01,0.00,0.00,0.24,0.06,9.96
7051,0.01,0.00,0.00,0.23,0.05,9.96
7056,0.01,0.00,0.00,0.22,0.07,9.95
7061,0.01,0.00,0.00,0.25,0.04,9.94
7066,0.01,0.00,0.00,0.21,0.06,9.93
7071,0.01,0.00,0.00,0.25,0.06,9.95
7076,0.01,0.00,0.00,0.25,0.03,9.95
7081,0.01,0.00,0.00,0.21,0.09,9.94
7086,0.01,0.00,0.00,0.25,0.06,9.96
7091,0.01,0.00,0.00,0.23,0.06,9.95
7096,0.01,0.00,0.00,0.24,0.09,9.96
7101,0.01,0.00,0.00,0.26,0.04,9.94
7106,0.01,0.00,0.00,0.21,0.07,9.95
7111,0.01,0.00,0.00,0.26,0.06,9.96
7116,0.01,0.00,0.00,0.24,0.07,9.95
7121,0.01,0.00,0.00,0.24,0.09,9.95
7126,0.01,0.00,0.00,0.25,0.06,9.95
7131,0.01,0.00,0.00,0.22,0.09,9.96
7136,0.01,0.00,0.00,0.26,0.08,9.97
7141,0.01,0.00,0.00,0.24,0.06,9.96
7146,0.01,0.00,0.00,0.24,0.09,9.95
7151,0.01,0.00,0.00,0.27,0.07,9.97
7157,0.01,0.00,0.00,0.22,0.09,9.96
7162,0.01,0.00,0.00,0.24,0.09,9.95
7167,0.01,0.00,0.00,0.26,0.07,9.95
7172,0.01,0.00,0.00,0.21,0.09,9.95
7177,0.01,0.00,0.00,0.26,0.08,9.96
7182,0.01,0.00,0.00,0.22,0.06,9.95
7187,0.01,0.00,0.00,0.23,0.09,9.96
7192,0.01,0.00,0.00,0.25,0.07,9.97
7197,0.01,0.00,0.00,0.19,0.09,9.96
7202,0.01,0.00,0.00,0.24,0.07,9.95
7207,0.01,0.00,0.00,0.22,0.06,9.94
7212,0.01,0.00,0.00,0.20,0.09,9.95
7217,0.01,0.00,0.00,0.24,0.05,9.96
7222,0.01,0.00,0.00,0.19,0.09,9.95
7227,0.01,0.00,0.00,0.23,0.07,9.95
7232,0.01,0.00,0.00,0.22,0.05,9.96
7237,0.01,0.00,0.00,0.19,0.08,9.95
7242,0.01,0.00,0.00,0.23,0.06,9.96
7247,0.01,0.00,0.00,0.20,0.05,9.96
7252,0.01,0.00,0.00,0.22,0.08,9.95
7257,0.01,0.00,0.00,0.25,0.06,9.96
7262,0.01,0.00,0.00,0.19,0.07,9.93
7267,0.01,0.00,0.00,0.24,0.06,9.96
7273,0.01,0.00,0.00,0.22,0.05,9.96
7278,0.01,0.00,0.00,0.23,0.09,9.96
7283,0.01,0.00,0.00,0.26,0.06,9.94
7288,0.01,0.00,0.00,0.23,0.07,9.96
7293,0.01,0.00,0.00,0.26,0.07,9.96
7298,0.01,0.00,0.00,0.25,0.07,9.95
7303,0.01,0.00,0.00,0.23,0.09,9.94
7308,0.01,0.00,0.00,0.26,0.07,9.95
7313,0.01,0.00,0.00,0.24,0.09,9.97
7318,0.01,0.00,0.00,0.26,0.08,9.95
7323,0.01,0.00,0.00,0.27,0.07,9.95
7328,0.01,0.00,0.00,0.22,0.10,9.95
7333,0.01,0.00,0.00,0.27,0.07,9.97
7338,0.01,0.00,0.00,0.23,0.06,9.96
7343,0.01,0.00,0.00,0.23,0.10,9.96
7348,0.01,0.00,0.00,0.26,0.07,9.96
7353,0.01,0.00,0.00,0.21,0.09,9.96
7358,0.01,0.00,0.00,0.26,0.08,9.97
7363,0.01,0.00,0.00,0.24,0.06,9.95
7368,0.01,0.00,0.00,0.21,0.10,9.96
7373,0.01,0.00,0.00,0.25,0.07,9.96
7378,0.01,0.00,0.00,0.21,0.07,9.97
7383,0.01,0.00,0.00,0.23,0.08,9.96
7389,0.01,0.00,0.00,0.24,0.06,9.96
7394,0.01,0.00,0.00,0.20,0.09,9.95
7399,0.01,0.00,0.00,0.24,0.07,9.96
7404,0.01,0.00,0.00,0.21,0.07,9.95
7409,0.01,0.00,0.00,0.23,0.08,9.96
7414,0.01,0.00,0.00,0.24,0.06,9.97
7419,0.01,0.00,0.00,0.19,0.08,9.94
7424,0.01,0.00,0.00,0.24,0.07,9.96
7429,0.01,0.00,0.00,0.22,0.06,9.95
7434,0.01,0.00,0.00,0.22,0.09,9.96
7439,0.01,0.00,0.00,0.24,0.06,9.95
7444,0.01,0.00,0.00,0.20,0.07,9.95
7449,0.01,0.00,0.00,0.24,0.07,9.96
7454,0.01,0.00,0.00,0.23,0.05,9.96
7459,0.01,0.00,0.00,0.21,0.09,9.96
7464,0.01,0.00,0.00,0.26,0.05,9.96
7469,0.01,0.00,0.00,0.23,0.06,9.95
7474,0.01,0.00,0.00,0.24,0.09,9.95
7479,0.01,0.00,0.00,0.25,0.05,9.95
7484,0.01,0.00,0.00,0.22,0.08,9.95
7489,0.01,0.00,0.00,0.25,0.07,9.96
7494,0.01,0.00,0.00,0.23,0.07,9.96
7500,0.01,0.00,0.00,0.23,0.10,9.94
7505,0.01,0.00,0.00,0.25,0.05,9.96
7510,0.01,0.00,0.00,0.20,0.08,9.96
7515,0.01,0.00,0.00,0.23,0.08,9.96
7520,0.01,0.00,0.00,0.22,0.07,9.95
7525,0.01,0.00,0.00,0.21,0.10,9.96
7530,0.01,0.00,0.00,0.26,0.07,9.97
7535,0.01,0.00,0.00,0.21,0.08,9.96
7540,0.01,0.00,0.00,0.24,0.09,9.96
7545,0.01,0.00,0.00,0.23,0.06,9.96
7550,0.01,0.00,0.00,0.22,0.10,9.95
7555,0.01,0.00,0.00,0.26,0.07,9.97
7560,0.01,0.00,0.00,0.22,0.06,9.95
7565,0.01,0.00,0.00,0.24,0.09,9.96
7570,0.01,0.00,0.00,0.27,0.06,9.95
7575,0.01,0.00,0.00,0.22,0.08,9.95
7580,0.01,0.00,0.00,0.26,0.07,9.96
7585,0.01,0.00,0.00,0.24,0.06,9.96
7590,0.01,0.00,0.00,0.23,0.08,9.94
7595,0.01,0.00,0.00,0.27,0.05,9.97
7600,0.01,0.00,0.00,0.21,0.06,9.94
7605,0.01,0.00,0.00,0.26,0.08,9.95
7610,0.01,0.00,0.00,0.24,0.06,9.94
7616,0.01,0.00,0.00,0.22,0.09,9.95
7621,0.01,0.00,0.00,0.27,0.06,9.96
7626,0.01,0.00,0.00,0.22,0.08,9.95
7631,0.01,0.00,0.00,0.23,0.07,9.95
7636,0.01,0.00,0.00,0.24,0.06,9.95
7641,0.01,0.00,0.00,0.21,0.09,9.95
7646,0.01,0.00,0.00,0.25,0.06,9.95
7651,0.01,0.00,0.00,0.22,0.06,9.96
7656,0.01,0.00,0.00,0.22,0.08,9.95
7661,0.01,0.00,0.00,0.23,0.05,9.96
7666,0.01,0.00,0.00,0.21,0.07,9.94
7671,0.01,0.00,0.00,0.24,0.06,9.95
7676,0.01,0.00,0.00,0.24,0.06,9.96
7681,0.01,0.00,0.00,0.21,0.08,9.94
7686,0.01,0.00,0.00,0.26,0.06,9.96
7691,0.01,0.00,0.00,0.21,0.07,9.94
7696,0.01,0.00,0.00,0.23,0.09,9.96
7701,0.01,0.00,0.00,0.24,0.05,9.95
7706,0.01,0.00,0.00,0.20,0.09,9.96
7711,0.01,0.00,0.00,0.25,0.06,9.96
7716,0.01,0.00,0.00,0.21,0.07,9.96
7721,0.01,0.00,0.00,0.21,0.09,9.96
7726,0.01,0.00,0.00,0.24,0.06,9.95
7732,0.01,0.00,0.00,0.20,0.08,9.96
7737,0.01,0.00,0.00,0.24,0.08,9.96
7742,0.01,0.00,0.00,0.22,0.07,9.96
7747,0.01,0.00,0.00,0.21,0.10,9.95
7752,0.01,0.00,0.00,0.25,0.06,9.96
7757,0.01,0.00,0.00,0.20,0.09,9.95
7762,0.01,0.00,0.00,0.23,0.08,9.96
7767,0.01,0.00,0.00,0.23,0.06,9.96
7772,0.01,0.00,0.00,0.21,0.08,9.96
7777,0.01,0.00,0.00,0.26,0.06,9.97
7782,0.01,0.00,0.00,0.21,0.07,9.94
7787,0.01,0.00,0.00,0.24,0.08,9.96
7792,0.01,0.00,0.00,0.25,0.05,9.95
7797,0.01,0.00,0.00,0.23,0.08,9.94
7802,0.01,0.00,0.00,0.27,0.06,9.95
7807,0.01,0.00,0.00,0.24,0.05,9.96
7812,0.01,0.00,0.00,0.24,0.08,9.95
7817,0.01,0.00,0.00,0.26,0.06,9.96
7822,0.01,0.00,0.00,0.21,0.08,9.94
7827,0.01,0.00,0.00,0.25,0.07,9.96
7832,0.01,0.00,0.00,0.24,0.06,9.95
7837,0.01,0.00,0.00,0.23,0.08,9.95
7842,0.01,0.00,0.00,0.26,0.06,9.94
7848,0.01,0.00,0.00,0.21,0.07,9.96
7853,0.01,0.00,0.00,0.23,0.08,9.97
7858,0.01,0.00,0.00,0.23,0.06,9.96
7863,0.01,0.00,0.00,0.21,0.09,9.95
7868,0.01,0.00,0.00,0.24,0.07,9.97
7873,0.01,0.00,0.00,0.21,0.07,9.96
7878,0.01,0.00,0.00,0.21,0.09,9.97
7883,0.01,0.00,0.00,0.24,0.06,9.95
7888,0.01,0.00,0.00,0.19,0.09,9.96
7893,0.01,0.00,0.00,0.24,0.07,9.97
7898,0.01,0.00,0.00,0.21,0.07,9.97
7903,0.01,0.00,0.00,0.22,0.09,9.95
7908,0.01,0.00,0.00,0.25,0.07,9.97
7913,0.01,0.00,0.00,0.20,0.09,9.96
7918,0.01,0.00,0.00,0.24,0.08,9.97
7923,0.01,0.00,0.00,0.24,0.07,9.94
7928,0.01,0.00,0.00,0.23,0.09,9.96
7933,0.01,0.00,0.00,0.26,0.07,9.97
7938,0.01,0.00,0.00,0.22,0.07,9.96
7943,0.01,0.00,0.00,0.25,0.09,9.96
7948,0.01,0.00,0.00,0.25,0.06,9.96
7953,0.01,0.00,0.00,0.22,0.09,9.95
7958,0.01,0.00,0.00,0.26,0.06,9.95
7964,0.01,0.00,0.00,0.24,0.07,9.95
7969,0.01,0.00,0.00,0.25,0.07,9.96
7974,0.01,0.00,0.00,0.25,0.04,9.95
7979,0.01,0.00,0.00,0.22,0.09,9.95
7984,0.01,0.00,0.00,0.25,0.06,9.96
7989,0.01,0.00,0.00,0.23,0.07,9.95
7994,0.01,0.00,0.00,0.23,0.08,9.95
7999,0.01,0.00,0.00,0.26,0.06,9.96
8004,0.01,0.00,0.00,0.21,0.06,9.94
8009,0.01,0.00,0.00,0.24,0.07,9.96
8014,0.01,0.00,0.00,0.24,0.05,9.95
8019,0.01,0.00,0.01,0.21,0.07,9.95
8024,0.01,0.00,0.00,0.26,0.05,9.96
8029,0.01,0.00,0.00,0.21,0.07,9.95
8034,0.01,0.00,0.00,0.23,0.09,9.97
8039,0.01,0.00,0.00,0.24,0.05,9.94
8044,0.01,0.00,0.00,0.20,0.08,9.95
8049,0.01,0.00,0.00,0.25,0.08,9.97
8054,0.01,0.00,0.00,0.23,0.07,9.95
8059,0.01,0.00,0.00,0.23,0.09,9.96
8064,0.01,0.00,0.00,0.25,0.06,9.95
8069,0.01,0.00,0.00,0.20,0.10,9.97
8075,0.01,0.00,0.00,0.25,0.08,9.97
8080,0.01,0.00,0.00,0.24,0.07,9.95
8085,0.01,0.00,0.00,0.23,0.09,9.95
8090,0.01,0.00,0.00,0.25,0.08,9.96
8095,0.01,0.00,0.00,0.22,0.09,9.95
8100,0.01,0.00,0.00,0.24,0.08,9.96
8105,0.01,0.00,0.00,0.24,0.07,9.95
8110,0.01,0.00,0.00,0.21,0.09,9.96
8115,0.01,0.00,0.00,0.25,0.07,9.96
8120,0.01,0.00,0.00,0.21,0.07,9.95
8125,0.01,0.00,0.00,0.23,0.09,9.95
8130,0.01,0.00,0.00,0.24,0.06,9.95
8135,0.01,0.00,0.00,0.21,0.08,9.95
8140,0.01,0.00,0.00,0.25,0.08,9.95
8145,0.01,0.00,0.00,0.22,0.07,9.95
8150,0.01,0.00,0.00,0.22,0.09,9.96
8155,0.01,0.00,0.00,0.26,0.05,9.96
8160,0.01,0.00,0.00,0.21,0.07,9.94
8165,0.01,0.00,0.00,0.26,0.07,9.96
8170,0.01,0.00,0.00,0.24,0.05,9.96
8175,0.01,0.00,0.00,0.22,0.09,9.96
8180,0.01,0.00,0.00,0.27,0.07,9.96
8185,0.01,0.00,0.00,0.23,0.08,9.95
8191,0.01,0.00,0.00,0.24,0.09,9.97
8196,0.01,0.00,0.00,0.26,0.04,9.96
8201,0.01,0.00,0.00,0.22,0.09,9.93
8206,0.01,0.00,0.00,0.26,0.06,9.96
8211,0.01,0.00,0.00,0.23,0.07,9.95
8216,0.01,0.00,0.00,0.24,0.10,9.96
8221,0.01,0.00,0.00,0.25,0.07,9.93
8226,0.01,0.00,0.00,0.22,0.08,9.95
8231,0.01,0.00,0.00,0.25,0.08,9.95
8236,0.01,0.00,0.00,0.24,0.07,9.95
8241,0.01,0.00,0.00,0.23,0.10,9.95
8246,0.01,0.00,0.00,0.26,0.08,9.95
8251,0.01,0.00,0.00,0.20,0.09,9.96
8256,0.01,0.00,0.00,0.23,0.09,9.96
8261,0.01,0.00,0.00,0.25,0.06,9.96
8266,0.01,0.00,0.00,0.21,0.09,9.95
8271,0.01,0.00,0.00,0.26,0.06,9.97
8276,0.01,0.00,0.00,0.21,0.07,9.96
8281,0.01,0.00,0.00,0.23,0.08,9.95
8286,0.01,0.00,0.00,0.25,0.06,9.97
8291,0.01,0.00,0.00,0.20,0.09,9.95
8296,0.01,0.00,0.00,0.25,0.06,9.95
8301,0.01,0.00,0.00,0.22,0.07,9.94
8307,0.01,0.00,0.00,0.22,0.09,9.96
8312,0.01,0.00,0.00,0.24,0.05,9.96
8317,0.01,0.00,0.00,0.19,0.09,9.95
8322,0.01,0.00,0.00,0.23,0.07,9.95
8327,0.01,0.00,0.00,0.22,0.06,9.97
8332,0.01,0.00,0.00,0.21,0.09,9.96
8337,0.01,0.00,0.00,0.25,0.07,9.96
8342,0.01,0.00,0.00,0.20,0.07,9.95
8347,0.01,0.00,0.00,0.23,0.07,9.96
8352,0.01,0.00,0.00,0.23,0.06,9.96
8357,0.01,0.00,0.00,0.21,0.08,9.95
8362,0.01,0.00,0.00,0.25,0.07,9.95
8367,0.01,0.00,0.00,0.22,0.06,9.96
8372,0.01,0.00,0.00,0.23,0.08,9.96
8377,0.01,0.00,0.00,0.26,0.06,9.96
8382,0.01,0.00,0.00,0.20,0.08,9.95
8387,0.01,0.00,0.00,0.25,0.07,9.95
8392,0.01,0.00,0.00,0.23,0.07,9.94
8397,0.01,0.00,0.00,0.23,0.09,9.95
8402,0.01,0.00,0.00,0.26,0.05,9.95
8407,0.01,0.00,0.00,0.21,0.08,9.95
8412,0.01,0.00,0.00,0.25,0.07,9.96
8417,0.01,0.00,0.00,0.25,0.06,9.96
8423,0.01,0.00,0.00,0.22,0.08,9.95
8428,0.01,0.00,0.00,0.24,0.06,9.95
8433,0.01,0.00,0.00,0.20,0.07,9.95
8438,0.01,0.00,0.00,0.24,0.08,9.96
8443,0.01,0.00,0.00,0.24,0.05,9.94
8448,0.01,0.00,0.00,0.20,0.09,9.95
8453,0.01,0.00,0.00,0.25,0.07,9.96
8458,0.01,0.00,0.00,0.22,0.06,9.96
8463,0.01,0.00,0.00,0.23,0.09,9.95
8468,0.01,0.00,0.00,0.26,0.06,9.96
8473,0.01,0.00,0.00,0.21,0.09,9.95
8478,0.01,0.00,0.00,0.25,0.08,9.96
8483,0.01,0.00,0.00,0.23,0.06,9.95
8488,0.01,0.00,0.00,0.22,0.08,9.96
8493,0.01,0.00,0.00,0.26,0.06,9.96
8498,0.01,0.00,0.00,0.21,0.10,9.96
8503,0.01,0.00,0.00,0.26,0.08,9.95
8508,0.01,0.00,0.00,0.24,0.08,9.96
8513,0.01,0.00,0.00,0.22,0.09,9.95
8518,0.01,0.00,0.00,0.25,0.07,9.96
8523,0.01,0.00,0.00,0.21,0.08,9.96
8528,0.01,0.00,0.00,0.22,0.09,9.97
8533,0.01,0.00,0.00,0.24,0.05,9.95
8539,0.01,0.00,0.00,0.20,0.09,9.96
8544,0.01,0.00,0.00,0.24,0.07,9.95
8549,0.01,0.00,0.00,0.20,0.07,9.95
8554,0.01,0.00,0.00,0.21,0.09,9.96
8559,0.01,0.00,0.00,0.24,0.06,9.95
8564,0.01,0.00,0.00,0.20,0.09,9.94
8569,0.01,0.00,0.00,0.24,0.07,9.96
8574,0.01,0.00,0.00,0.23,0.05,9.95
8579,0.01,0.00,0.00,0.21,0.09,9.96
8584,0.01,0.00,0.00,0.24,0.06,9.95
8589,0.01,0.00,0.00,0.21,0.09,9.95
8594,0.01,0.00,0.00,0.24,0.08,9.96
8599,0.01,0.00,0.00,0.25,0.06,9.97
8604,0.01,0.00,0.00,0.21,0.09,9.94
8609,0.01,0.00,0.00,0.26,0.07,9.97
8614,0.01,0.00,0.00,0.23,0.07,9.96
8619,0.01,0.00,0.00,0.23,0.09,9.96
8624,0.01,0.00,0.00,0.26,0.05,9.95
8629,0.01,0.00,0.00,0.21,0.08,9.96
8634,0.01,0.00,0.00,0.27,0.08,9.97
8639,0.01,0.00,0.00,0.24,0.07,9.95
8644,0.01,0.00,0.00,0.24,0.10,9.95
8650,0.01,0.00,0.00,0.27,0.06,9.97
8655,0.01,0.00,0.00,0.22,0.09,9.95
8660,0.01,0.00,0.00,0.26,0.09,9.96
8665,0.01,0.00,0.00,0.26,0.06,9.95
8670,0.01,0.00,0.00,0.22,0.09,9.95
8675,0.01,0.00,0.00,0.27,0.06,9.95
8680,0.01,0.00,0.00,0.22,0.07,9.95
8685,0.01,0.00,0.00,0.24,0.08,9.95
8690,0.01,0.00,0.00,0.25,0.05,9.96
8695,0.01,0.00,0.00,0.21,0.08,9.94
8700,0.01,0.00,0.00,0.26,0.06,9.96
8705,0.01,0.00,0.00,0.21,0.07,9.94
8710,0.01,0.00,0.00,0.23,0.08,9.95
8715,0.01,0.00,0.00,0.24,0.05,9.95
8720,0.01,0.00,0.00,0.20,0.07,9.94
8725,0.01,0.00,0.00,0.24,0.07,9.96
8730,0.01,0.00,0.00,0.22,0.06,9.96
8735,0.01,0.00,0.00,0.21,0.09,9.97
8740,0.01,0.00,0.00,0.25,0.06,9.96
8745,0.01,0.00,0.00,0.20,0.09,9.96
8750,0.01,0.00,0.00,0.23,0.08,9.97
8755,0.01,0.00,0.00,0.23,0.07,9.96
8760,0.01,0.00,0.00,0.21,0.09,9.95
8766,0.01,0.00,0.00,0.24,0.06,9.94
8771,0.01,0.00,0.00,0.21,0.08,9.96
8776,0.01,0.00,0.00,0.24,0.09,9.95
8781,0.01,0.00,0.00,0.24,0.07,9.95
8786,0.01,0.00,0.00,0.21,0.08,9.94
8791,0.01,0.00,0.00,0.26,0.07,9.96
8796,0.01,0.00,0.00,0.22,0.06,9.95
8801,0.01,0.00,0.00,0.22,0.08,9.95
8806,0.01,0.00,0.00,0.26,0.07,9.96
8811,0.01,0.00,0.00,0.22,0.08,9.96
8816,0.01,0.00,0.00,0.25,0.07,9.95
8821,0.01,0.00,0.00,0.24,0.05,9.95
8826,0.01,0.00,0.00,0.23,0.08,9.95
8831,0.01,0.00,0.00,0.25,0.05,9.95
8836,0.01,0.00,0.00,0.21,0.07,9.97
8841,0.01,0.00,0.00,0.25,0.09,9.94
8846,0.01,0.00,0.00,0.24,0.06,9.97
8851,0.01,0.00,0.00,0.20,0.09,9.95
8856,0.01,0.00,0.00,0.26,0.08,9.96
8861,0.01,0.00,0.00,0.22,0.07,9.95
8866,0.01,0.00,0.00,0.24,0.10,9.96
8871,0.01,0.00,0.00,0.26,0.06,9.97
8876,0.01,0.00,0.00,0.21,0.09,9.96
8882,0.01,0.00,0.00,0.25,0.09,9.96
8887,0.01,0.00,0.00,0.22,0.06,9.95
8892,0.01,0.00,0.00,0.22,0.09,9.96
8897,0.01,0.00,0.00,0.26,0.05,9.97
8902,0.01,0.00,0.00,0.21,0.07,9.94
8907,0.01,0.00,0.00,0.26,0.08,9.95
8912,0.01,0.00,0.00,0.23,0.05,9.95
8917,0.01,0.00,0.00,0.21,0.08,9.96
8922,0.01,0.00,0.00,0.25,0.06,9.95
8927,0.01,0.00,0.00,0.21,0.07,9.96
8932,0.01,0.00,0.00,0.23,0.07,9.95
8937,0.01,0.00,0.00,0.24,0.06,9.97
8942,0.01,0.00,0.00,0.21,0.07,9.94
8947,0.01,0.00,0.00,0.25,0.07,9.95
8952,0.01,0.00,0.00,0.22,0.07,9.95
8957,0.01,0.00,0.00,0.23,0.09,9.95
8962,0.01,0.00,0.00,0.26,0.07,9.95
8967,0.01,0.00,0.00,0.20,0.09,9.94
8972,0.01,0.00,0.00,0.25,0.08,9.97
8977,0.01,0.00,0.00,0.23,0.07,9.95
8982,0.01,0.00,0.00,0.21,0.09,9.95
8987,0.01,0.00,0.00,0.27,0.08,9.97
8993,0.01,0.00,0.00,0.22,0.09,9.97
8998,0.01,0.00,0.00,0.25,0.08,9.96
9003,0.01,0.00,0.00,0.23,0.06,9.96
9008,0.01,0.00,0.00,0.22,0.09,9.96
9013,0.01,0.00,0.00,0.26,0.07,9.97
9018,0.01,0.00,0.00,0.23,0.07,9.96
9023,0.01,0.00,0.00,0.24,0.08,9.95
9028,0.01,0.00,0.00,0.25,0.05,9.96
9033,0.01,0.00,0.00,0.21,0.07,9.96
9038,0.01,0.00,0.00,0.25,0.06,9.95
9043,0.01,0.00,0.00,0.22,0.06,9.95
9048,0.01,0.00,0.00,0.22,0.08,9.96
9053,0.01,0.00,0.00,0.25,0.05,9.95
9058,0.01,0.00,0.00,0.22,0.08,9.95
9063,0.01,0.00,0.00,0.24,0.08,9.95
9068,0.01,0.00,0.00,0.23,0.06,9.96
9073,0.01,0.00,0.00,0.21,0.11,9.97
9078,0.01,0.00,0.00,0.25,0.07,9.96
9083,0.01,0.00,0.00,0.21,0.08,9.95
9088,0.01,0.00,0.00,0.24,0.09,9.97
9093,0.01,0.00,0.00,0.25,0.08,9.95
9098,0.01,0.00,0.00,0.21,0.11,9.95
9103,0.01,0.00,0.00,0.26,0.07,9.95
9109,0.01,0.00,0.00,0.23,0.08,9.96
9114,0.01,0.00,0.00,0.23,0.09,9.96
9119,0.01,0.00,0.00,0.26,0.06,9.95
9124,0.01,0.00,0.00,0.21,0.08,9.95
9129,0.01,0.00,0.00,0.26,0.08,9.97
9134,0.01,0.00,0.00,0.24,0.04,9.95
9139,0.01,0.00,0.00,0.22,0.08,9.95
9144,0.01,0.00,0.00,0.26,0.05,9.96
9149,0.01,0.00,0.00,0.22,0.07,9.96
9154,0.01,0.00,0.00,0.24,0.07,9.96
9159,0.01,0.00,0.00,0.23,0.03,9.96
9164,0.01,0.00,0.00,0.21,0.08,9.95
9169,0.01,0.00,0.00,0.26,0.06,9.96
9174,0.01,0.00,0.00,0.20,0.08,9.95
9179,0.01,0.00,0.00,0.23,0.09,9.94
9184,0.01,0.00,0.00,0.23,0.06,9.96
9189,0.01,0.00,0.00,0.20,0.09,9.96
9194,0.01,0.00,0.00,0.23,0.08,9.97
9199,0.01,0.00,0.00,0.21,0.08,9.96
9204,0.01,0.00,0.00,0.22,0.09,9.95
9209,0.01,0.00,0.00,0.24,0.08,9.98
9214,0.01,0.00,0.00,0.20,0.10,9.96
9219,0.01,0.00,0.00,0.23,0.09,9.96
9225,0.01,0.00,0.00,0.24,0.07,9.96
9230,0.01,0.00,0.00,0.22,0.08,9.95
9235,0.01,0.00,0.00,0.25,0.07,9.97
9240,0.01,0.00,0.00,0.21,0.07,9.94
9245,0.01,0.00,0.00,0.25,0.09,9.95
9250,0.01,0.00,0.00,0.24,0.05,9.95
9255,0.01,0.00,0.00,0.21,0.09,9.94
9260,0.01,0.00,0.00,0.26,0.06,9.96
9265,0.01,0.00,0.00,0.22,0.06,9.95
9270,0.01,0.00,0.00,0.23,0.09,9.96
9275,0.01,0.00,0.00,0.25,0.05,9.96
9280,0.01,0.00,0.00,0.21,0.08,9.94
9285,0.01,0.00,0.00,0.25,0.07,9.94
9290,0.01,0.00,0.00,0.25,0.06,9.96
9295,0.01,0.00,0.00,0.22,0.09,9.95
9300,0.01,0.00,0.00,0.26,0.06,9.95
9305,0.01,0.00,0.00,0.22,0.08,9.94
9310,0.01,0.00,0.00,0.25,0.09,9.96
9315,0.01,0.00,0.00,0.26,0.05,9.95
9320,0.01,0.00,0.00,0.23,0.08,9.95
9325,0.01,0.00,0.00,0.27,0.06,9.96
9330,0.01,0.00,0.00,0.23,0.06,9.95
9335,0.01,0.00,0.00,0.25,0.08,9.96
9341,0.01,0.00,0.00,0.26,0.05,9.94
9346,0.01,0.00,0.00,0.21,0.08,9.96
9351,0.01,0.00,0.00,0.25,0.07,9.96
9356,0.01,0.00,0.00,0.22,0.06,9.96
9361,0.01,0.00,0.00,0.23,0.07,9.95
9366,0.01,0.00,0.00,0.25,0.05,9.96
9371,0.01,0.00,0.00,0.19,0.08,9.95
9376,0.01,0.00,0.00,0.23,0.10,9.96
9381,0.01,0.00,0.00,0.22,0.07,9.96
9386,0.01,0.00,0.00,0.19,0.10,9.96
9391,0.01,0.00,0.00,0.23,0.08,9.97
9396,0.01,0.00,0.00,0.20,0.09,9.96
9401,0.01,0.00,0.00,0.21,0.10,9.97
9406,0.01,0.00,0.00,0.22,0.06,9.95
9411,0.01,0.00,0.00,0.19,0.09,9.97
9416,0.01,0.00,0.00,0.23,0.08,9.96
9421,0.01,0.00,0.00,0.20,0.07,9.95
9426,0.01,0.00,0.00,0.22,0.08,9.95
9431,0.01,0.00,0.00,0.23,0.06,9.96
9436,0.01,0.00,0.00,0.19,0.08,9.96
9441,0.01,0.00,0.00,0.25,0.06,9.95
9446,0.01,0.00,0.00,0.24,0.05,9.95
9451,0.01,0.00,0.00,0.22,0.07,9.96
9457,0.01,0.00,0.00,0.26,0.04,9.95
9462,0.01,0.00,0.00,0.22,0.06,9.94
9467,0.01,0.00,0.00,0.25,0.08,9.95
9472,0.01,0.00,0.00,0.25,0.05,9.96
9477,0.01,0.00,0.00,0.23,0.09,9.95
9482,0.01,0.00,0.00,0.26,0.06,9.95
9487,0.01,0.00,0.00,0.21,0.07,9.96
9492,0.01,0.00,0.00,0.24,0.08,9.97
9497,0.01,0.00,0.00,0.25,0.06,9.96
9502,0.01,0.00,0.00,0.21,0.09,9.94
9507,0.01,0.00,0.00,0.26,0.09,9.97
9512,0.01,0.00,0.00,0.23,0.06,9.95
9517,0.01,0.00,0.00,0.23,0.10,9.96
9522,0.01,0.00,0.00,0.25,0.06,9.95
9527,0.01,0.00,0.00,0.22,0.08,9.95
9532,0.01,0.00,0.00,0.26,0.07,9.97
9537,0.01,0.00,0.00,0.25,0.05,9.94
9542,0.01,0.00,0.00,0.23,0.07,9.94
9547,0.01,0.00,0.00,0.26,0.05,9.95
9552,0.01,0.00,0.00,0.22,0.06,9.95
9557,0.01,0.00,0.00,0.25,0.07,9.94
9562,0.01,0.00,0.00,0.25,0.04,9.93
9568,0.01,0.00,0.00,0.22,0.08,9.94
9573,0.01,0.00,0.00,0.26,0.05,9.95
9578,0.01,0.00,0.00,0.21,0.05,9.94
9583,0.01,0.00,0.00,0.22,0.09,9.95
9588,0.01,0.00,0.00,0.24,0.05,9.96
9593,0.01,0.00,0.00,0.20,0.09,9.97
9598,0.01,0.00,0.00,0.24,0.09,9.97
9603,0.01,0.00,0.00,0.21,0.08,9.95
9608,0.01,0.00,0.00,0.21,0.10,9.97
9613,0.01,0.00,0.00,0.23,0.07,9.99
9618,0.01,0.00,0.00,0.19,0.10,9.96
9623,0.01,0.00,0.00,0.23,0.09,9.95
9628,0.01,0.00,0.00,0.23,0.08,9.97
9633,0.01,0.00,0.00,0.20,0.10,9.96
9638,0.01,0.00,0.00,0.24,0.07,9.97
9643,0.01,0.00,0.00,0.22,0.09,9.95
9648,0.01,0.00,0.00,0.23,0.08,9.97
9653,0.01,0.00,0.00,0.26,0.06,9.96
9658,0.01,0.00,0.00,0.22,0.08,9.96
9663,0.01,0.00,0.00,0.26,0.07,9.95
9668,0.01,0.00,0.00,0.23,0.06,9.95
9673,0.01,0.00,0.00,0.22,0.08,9.96
9678,0.01,0.00,0.00,0.27,0.05,9.95
9684,0.01,0.00,0.00,0.22,0.09,9.95
9689,0.01,0.00,0.00,0.26,0.06,9.96
9694,0.01,0.00,0.00,0.23,0.06,9.96
9699,0.01,0.00,0.00,0.22,0.09,9.95
9704,0.01,0.00,0.00,0.25,0.06,9.94
9709,0.01,0.00,0.00,0.20,0.09,9.96
9714,0.01,0.00,0.00,0.23,0.08,9.95
9719,0.01,0.00,0.00,0.23,0.06,9.96
9724,0.01,0.00,0.00,0.21,0.10,9.94
9729,0.01,0.00,0.00,0.25,0.08,9.98
9734,0.01,0.00,0.00,0.22,0.08,9.96
9739,0.01,0.00,0.00,0.23,0.08,9.96
9744,0.01,0.00,0.00,0.26,0.06,9.94
9749,0.01,0.00,0.00,0.22,0.09,9.96
9754,0.01,0.00,0.00,0.27,0.07,9.96
9759,0.01,0.00,0.00,0.24,0.06,9.95
9764,0.01,0.00,0.00,0.24,0.09,9.96
9769,0.01,0.00,0.00,0.27,0.06,9.96
9774,0.01,0.00,0.00,0.23,0.08,9.96
9779,0.01,0.00,0.00,0.28,0.06,9.95
9784,0.01,0.00,0.00,0.26,0.06,9.95
9789,0.01,0.00,0.00,0.23,0.08,9.95
9794,0.01,0.00,0.00,0.26,0.07,9.97
9800,0.01,0.00,0.00,0.22,0.07,9.95
9805,0.01,0.00,0.00,0.24,0.07,9.96
9810,0.01,0.00,0.00,0.24,0.07,9.97
9815,0.01,0.00,0.00,0.21,0.09,9.95
9820,0.01,0.00,0.00,0.23,0.07,9.96
9825,0.01,0.00,0.00,0.20,0.08,9.96
9830,0.01,0.00,0.00,0.21,0.09,9.96
9835,0.01,0.00,0.00,0.25,0.07,9.99
9840,0.01,0.00,0.00,0.19,0.08,9.94
9845,0.01,0.00,0.00,0.24,0.08,9.94
9850,0.01,0.00,0.00,0.21,0.05,9.96
9855,0.01,0.00,0.00,0.21,0.08,9.95
9860,0.01,0.00,0.00,0.23,0.06,9.95
9865,0.01,0.00,0.00,0.20,0.07,9.94
9870,0.01,0.00,0.00,0.23,0.08,9.95
9875,0.01,0.00,0.00,0.23,0.06,9.96
9880,0.01,0.00,0.00,0.21,0.08,9.94
9885,0.01,0.00,0.00,0.24,0.06,9.94
9890,0.01,0.00,0.00,0.21,0.07,9.95
9895,0.01,0.00,0.00,0.22,0.07,9.96
9900,0.01,0.00,0.00,0.25,0.05,9.96
9905,0.01,0.00,0.00,0.21,0.07,9.94
9910,0.01,0.00,0.00,0.27,0.07,9.97
9916,0.01,0.00,0.00,0.22,0.05,9.96
9921,0.01,0.00,0.01,0.23,0.09,9.94
9926,0.01,0.00,0.00,0.26,0.05,9.95
9931,0.01,0.00,0.00,0.21,0.08,9.96
9936,0.01,0.00,0.00,0.24,0.08,9.95
9941,0.01,0.00,0.00,0.24,0.06,9.96
9946,0.01,0.00,0.00,0.21,0.09,9.95
9951,0.01,0.00,0.00,0.26,0.05,9.96
9956,0.01,0.00,0.00,0.22,0.09,9.96
9961,0.01,0.00,0.00,0.25,0.07,9.96
9966,0.01,0.00,0.00,0.26,0.07,9.96
9971,0.01,0.00,0.00,0.22,0.09,9.95
9976,0.01,0.00,0.00,0.27,0.07,9.96
9981,0.01,0.00,0.00,0.23,0.06,9.94
9986,0.01,0.00,0.00,0.24,0.08,9.95
9991,0.01,0.00,0.00,0.26,0.06,9.96
9996,0.01,0.00,0.00,0.22,0.08,9.96
10001,0.01,0.00,0.00,0.26,0.07,9.96
10006,0.01,0.00,0.00,0.24,0.06,9.95
10011,0.01,0.00,0.00,0.23,0.08,9.95
10016,0.01,0.00,0.00,0.26,0.05,9.95
10021,0.01,0.00,0.00,0.22,0.09,9.95
10026,0.01,0.00,0.00,0.25,0.08,9.95
10032,0.01,0.00,0.00,0.23,0.07,9.96
10037,0.01,0.00,0.00,0.20,0.09,9.96
10042,0.01,0.00,0.00,0.24,0.07,9.96
10047,0.01,0.00,0.00,0.21,0.08,9.96
10052,0.01,0.00,0.00,0.23,0.08,9.95
10057,0.01,0.00,0.00,0.23,0.07,9.97
10062,0.01,0.00,0.00,0.19,0.08,9.94
10067,0.01,0.00,0.00,0.23,0.07,9.96
10072,0.01,0.00,0.00,0.20,0.06,9.95
10077,0.01,0.00,0.00,0.22,0.08,9.97
10082,0.01,0.00,0.00,0.25,0.05,9.95
10087,0.01,0.00,0.00,0.21,0.08,9.94
10092,0.01,0.00,0.00,0.24,0.07,9.95
10097,0.01,0.00,0.00,0.23,0.05,9.94
10102,0.01,0.00,0.00,0.22,0.08,9.94
10107,0.01,0.00,0.00,0.26,0.05,9.94
10112,0.01,0.00,0.00,0.22,0.08,9.95
10117,0.01,0.00,0.00,0.26,0.07,9.95
10122,0.01,0.00,0.00,0.26,0.05,9.95
10127,0.01,0.00,0.00,0.23,0.08,9.96
10132,0.01,0.00,0.00,0.26,0.07,9.96
10137,0.01,0.00,0.00,0.23,0.08,9.97
10143,0.01,0.00,0.00,0.25,0.09,9.95
10148,0.01,0.00,0.00,0.26,0.06,9.96
10153,0.01,0.00,0.00,0.23,0.09,9.95
10158,0.01,0.00,0.00,0.26,0.08,9.97
10163,0.01,0.00,0.00,0.23,0.08,9.93
10168,0.01,0.00,0.00,0.23,0.10,9.96
10173,0.01,0.00,0.00,0.26,0.07,9.97
10178,0.01,0.00,0.00,0.21,0.09,9.95
10183,0.01,0.00,0.00,0.25,0.09,9.96
10188,0.01,0.00,0.00,0.24,0.06,9.96
10193,0.01,0.00,0.00,0.22,0.10,9.96
10198,0.01,0.00,0.00,0.26,0.06,9.96
10203,0.01,0.00,0.00,0.23,0.07,9.96
10208,0.01,0.00,0.00,0.24,0.08,9.96
10213,0.01,0.00,0.00,0.25,0.05,9.96
10218,0.01,0.00,0.00,0.20,0.08,9.94
10223,0.01,0.00,0.00,0.25,0.06,9.95
10228,0.01,0.00,0.00,0.22,0.07,9.96
10233,0.01,0.00,0.00,0.22,0.08,9.95
10238,0.01,0.00,0.00,0.24,0.05,9.96
10243,0.01,0.00,0.00,0.20,0.07,9.94
10248,0.01,0.00,0.00,0.25,0.07,9.95
10253,0.01,0.00,0.00,0.23,0.05,9.96
10259,0.01,0.00,0.00,0.20,0.09,9.96
10264,0.01,0.00,0.00,0.24,0.07,9.96
10269,0.01,0.00,0.00,0.20,0.07,9.96
10274,0.01,0.00,0.00,0.24,0.09,9.96
10279,0.01,0.00,0.00,0.24,0.06,9.94
10284,0.01,0.00,0.00,0.22,0.09,9.95
10289,0.01,0.00,0.00,0.26,0.06,9.97
10294,0.01,0.00,0.00,0.23,0.07,9.97
10299,0.01,0.00,0.00,0.25,0.08,9.95
10304,0.01,0.00,0.00,0.27,0.06,9.94
10309,0.01,0.00,0.00,0.21,0.08,9.96
10314,0.01,0.00,0.00,0.26,0.07,9.96
10319,0.01,0.00,0.00,0.23,0.06,9.95
10324,0.01,0.00,0.00,0.22,0.09,9.94
10329,0.01,0.00,0.00,0.26,0.05,9.96
10334,0.01,0.00,0.00,0.21,0.09,9.95
10339,0.01,0.00,0.00,0.24,0.08,9.96
10344,0.01,0.00,0.00,0.23,0.05,9.94
10349,0.01,0.00,0.00,0.21,0.09,9.95
10354,0.01,0.00,0.00,0.26,0.08,9.96
10359,0.01,0.00,0.00,0.21,0.07,9.95
10364,0.01,0.00,0.00,0.23,0.09,9.95
10369,0.01,0.00,0.00,0.24,0.06,9.97
10375,0.01,0.00,0.00,0.21,0.09,9.97
10380,0.01,0.00,0.00,0.24,0.06,9.96
10385,0.01,0.00,0.00,0.22,0.07,9.95
10390,0.01,0.00,0.01,0.23,0.09,9.96
10395,0.01,0.01,0.00,0.24,0.06,9.95
10400,0.02,0.02,-0.00,0.16,0.11,9.96
10405,0.02,0.02,-0.02,-0.25,0.28,9.96
10410,0.01,0.02,-0.17,-2.63,1.25,10.06
10415,0.01,0.01,-0.46,-2.76,1.17,9.95
10420,0.00,0.00,-0.62,-1.83,0.89,9.96
10425,-0.01,0.00,-0.67,-1.48,0.54,10.02
10430,-0.00,-0.01,-0.68,-1.08,0.21,9.80
10435,0.02,-0.01,-0.62,-0.50,0.02,10.20
10440,-0.01,0.03,-0.50,-0.49,-0.07,9.92
10445,-0.02,0.02,-0.37,-0.16,-0.43,9.78
10450,0.06,0.03,-0.24,0.58,-0.59,10.36
10455,-0.01,0.16,-0.07,1.12,-0.79,10.49
10460,-0.02,0.28,0.12,1.58,-1.06,10.25
10465,-0.01,0.39,0.27,1.31,-0.75,10.90
10470,0.01,0.45,0.35,1.05,-0.96,9.37
10475,-0.01,0.47,0.38,0.54,-0.35,10.31
10480,-0.04,0.50,0.36,0.23,-0.17,9.94
10485,0.06,0.49,0.32,0.37,-0.20,9.50
10491,-0.01,0.47,0.30,0.86,0.01,9.97
10496,0.06,0.43,0.31,1.41,0.44,10.64
10501,-0.08,0.43,0.34,1.64,-0.06,8.96
10506,0.05,0.40,0.37,1.41,0.22,10.52
10511,0.02,0.41,0.39,1.27,-0.20,9.59
10516,-0.03,0.41,0.38,1.10,0.15,10.20
10521,0.00,0.38,0.37,0.97,0.28,9.88
10526,0.01,0.38,0.35,0.84,0.46,9.99
10531,-0.01,0.40,0.32,0.72,0.51,10.05
10536,-0.00,0.42,0.27,0.55,0.50,10.19
10541,-0.00,0.46,0.21,-0.13,0.15,10.03
10546,-0.01,0.47,0.19,-0.31,0.08,9.81
10551,-0.01,0.44,0.19,0.15,0.17,10.07
10556,-0.01,0.47,0.17,-0.04,0.18,10.10
10561,-0.01,0.52,0.10,-0.28,0.42,10.18
10566,-0.01,0.60,0.03,-0.23,0.25,10.29
10571,-0.01,0.69,-0.01,-0.17,0.26,10.26
10576,-0.01,0.76,-0.04,-0.28,0.27,10.23
10581,-0.01,0.84,-0.08,-0.40,0.42,10.23
10586,-0.02,0.92,-0.13,-0.40,0.54,10.32
10591,-0.03,1.00,-0.16,-0.41,0.57,10.49
10596,-0.09,1.06,-0.18,-0.29,0.56,10.90
10602,-0.19,1.11,-0.16,-0.27,0.45,11.07
10607,-0.31,1.13,-0.13,-0.24,0.39,11.11
10612,-0.43,1.15,-0.11,-0.45,0.17,11.01
10617,-0.53,1.17,-0.09,-0.56,-0.02,10.71
10622,-0.59,1.18,-0.06,-0.63,-0.08,10.26
10627,-0.56,1.07,-0.03,-0.83,-0.81,9.37
10632,-0.43,0.92,0.02,-0.36,-0.54,8.99
10637,-0.40,0.88,0.09,-0.54,-0.52,8.84
10642,-0.32,0.79,0.14,-0.74,-0.37,8.91
10647,-0.29,0.67,0.17,-1.12,-0.41,9.07
10652,-0.26,0.57,0.17,-1.35,-0.31,9.42
10657,-0.27,0.50,0.16,-1.64,-0.27,9.66
10662,-0.27,0.47,0.13,-1.65,-0.24,9.80
10667,-0.27,0.48,0.11,-1.62,-0.23,9.93
10672,-0.26,0.52,0.06,-1.31,0.02,10.04
10677,-0.26,0.59,0.02,-1.09,-0.04,10.41
10682,-0.28,0.67,0.00,-1.04,-0.17,10.39
10687,-0.29,0.74,0.00,-1.07,-0.31,10.17
10692,-0.29,0.79,0.02,-1.14,-0.37,9.99
10697,-0.28,0.81,0.03,-1.38,-0.48,9.87
10702,-0.28,0.83,0.04,-1.34,-0.49,9.87
10707,-0.29,0.83,0.06,-1.40,-0.51,9.93
10712,-0.31,0.82,0.08,-1.38,-0.53,9.87
10718,-0.32,0.79,0.09,-1.37,-0.46,9.83
10723,-0.34,0.75,0.10,-1.35,-0.40,9.87
10728,-0.37,0.71,0.10,-1.31,-0.34,9.88
10733,-0.38,0.67,0.10,-1.32,-0.34,9.77
10738,-0.40,0.60,0.10,-1.34,-0.42,9.66
10743,-0.41,0.52,0.12,-1.36,-0.56,9.49
10748,-0.41,0.41,0.14,-1.39,-0.67,9.32
10753,-0.42,0.28,0.17,-1.50,-0.73,9.30
10758,-0.43,0.18,0.22,-1.59,-0.54,9.40
10763,-0.44,0.10,0.23,-2.10,-0.53,9.59
10768,-0.43,0.08,0.23,-2.08,-0.56,9.67
10773,-0.41,0.12,0.21,-2.08,-0.56,9.98
10778,-0.42,0.19,0.19,-2.10,-0.57,10.11
10783,-0.43,0.27,0.17,-2.06,-0.50,10.17
10788,-0.45,0.33,0.16,-2.09,-0.52,10.10
10793,-0.46,0.36,0.16,-2.01,-0.54,9.98
10798,-0.47,0.40,0.16,-2.12,-0.66,9.79
10803,-0.45,0.44,0.16,-2.14,-0.76,9.70
10808,-0.42,0.46,0.17,-2.03,-0.87,9.69
10813,-0.36,0.46,0.20,-1.87,-1.01,9.67
10818,-0.29,0.43,0.23,-1.83,-1.02,9.59
10823,-0.19,0.40,0.25,-1.91,-1.02,9.58
10828,-0.10,0.37,0.24,-1.87,-0.96,9.62
10834,-0.03,0.35,0.22,-1.71,-0.87,9.73
10839,0.02,0.33,0.21,-1.66,-0.74,9.85
10844,0.02,0.28,0.19,-1.67,-0.63,10.00
10849,0.01,0.22,0.18,-1.75,-0.58,10.09
10854,-0.03,0.14,0.17,-1.75,-0.61,10.06
10859,-0.06,0.03,0.18,-1.72,-0.69,9.88
10864,-0.08,-0.08,0.18,-1.79,-0.81,9.73
10869,-0.09,-0.19,0.19,-1.89,-0.86,9.70
10874,-0.08,-0.28,0.18,-2.04,-0.81,9.74
10879,-0.06,-0.35,0.17,-2.12,-0.77,9.79
10884,-0.03,-0.37,0.14,-2.08,-0.73,9.86
10889,0.01,-0.35,0.11,-1.97,-0.67,9.97
10894,0.05,-0.34,0.09,-1.85,-0.68,10.02
10899,0.10,-0.36,0.08,-1.74,-0.68,10.03
10904,0.15,-0.40,0.07,-1.63,-0.66,9.97
10909,0.20,-0.45,0.06,-1.52,-0.59,9.92
10914,0.27,-0.52,0.06,-1.47,-0.58,9.89
10919,0.33,-0.60,0.04,-1.52,-0.64,9.97
10924,0.38,-0.66,0.03,-1.58,-0.71,10.07
10929,0.43,-0.73,0.01,-1.56,-0.77,10.20
10934,0.47,-0.80,0.01,-1.55,-0.84,10.35
10939,0.49,-0.88,0.02,-1.60,-0.86,10.37
10944,0.52,-0.97,0.03,-1.55,-0.89,10.23
10950,0.56,-1.06,0.04,-1.56,-0.87,10.03
10955,0.60,-1.14,0.04,-1.53,-0.83,9.93
10960,0.64,-1.20,0.04,-1.42,-0.80,9.86
10965,0.68,-1.25,0.03,-1.25,-0.74,9.80
10970,0.72,-1.29,0.03,-1.11,-0.67,9.81
10975,0.73,-1.32,0.02,-1.02,-0.62,9.85
10980,0.72,-1.34,-0.00,-0.97,-0.51,9.81
10985,0.71,-1.36,-0.02,-1.02,-0.45,9.74
10990,0.69,-1.41,-0.04,-0.90,-0.37,9.79
10995,0.66,-1.45,-0.04,-0.83,-0.27,9.89
11000,0.60,-1.48,-0.04,-0.73,-0.30,9.88
11005,0.55,-1.48,-0.06,-0.69,-0.31,9.73
11010,0.50,-1.48,-0.07,-0.88,-0.48,9.61
11015,0.45,-1.48,-0.10,-0.26,-0.29,9.64
11020,0.35,-1.47,-0.07,-0.32,-0.21,10.01
11025,0.25,-1.52,-0.09,-0.50,-0.28,9.75
11030,0.15,-1.56,-0.11,-0.26,-0.20,9.84
11035,0.08,-1.58,-0.13,-0.24,-0.25,9.60
11040,0.04,-1.57,-0.15,0.01,-0.20,9.54
11045,0.01,-1.52,-0.17,0.19,-0.20,9.56
11050,-0.03,-1.48,-0.17,0.23,-0.13,9.66
11055,-0.07,-1.46,-0.17,0.11,-0.13,9.77
11060,-0.11,-1.44,-0.19,0.03,-0.07,9.77
11066,-0.14,-1.41,-0.20,-0.03,-0.01,9.70
11071,-0.17,-1.37,-0.21,0.07,-0.04,9.75
11076,-0.19,-1.32,-0.20,0.25,-0.11,9.81
11081,-0.20,-1.27,-0.20,0.02,-0.31,9.73
11086,-0.19,-1.20,-0.19,0.51,-0.22,9.67
11091,-0.19,-1.14,-0.17,0.35,-0.18,9.75
11096,-0.20,-1.12,-0.15,0.38,0.02,9.84
11101,-0.22,-1.12,-0.16,0.23,0.15,9.85
11106,-0.25,-1.12,-0.18,0.43,0.30,9.90
11111,-0.27,-1.11,-0.21,0.57,0.24,9.88
11116,-0.29,-1.12,-0.24,0.66,0.07,9.91
11121,-0.30,-1.14,-0.27,0.75,-0.15,9.98
11126,-0.31,-1.17,-0.29,0.82,-0.31,10.12
11131,-0.32,-1.21,-0.30,0.89,-0.43,10.20
11136,-0.32,-1.24,-0.31,0.89,-0.42,10.27
11141,-0.31,-1.26,-0.32,0.88,-0.37,10.29
11146,-0.28,-1.29,-0.34,0.89,-0.41,10.25
11151,-0.24,-1.32,-0.35,0.96,-0.39,10.21
11156,-0.17,-1.32,-0.37,1.00,-0.37,10.06
11161,-0.07,-1.31,-0.38,1.17,-0.32,9.93
11166,0.03,-1.28,-0.38,1.20,-0.31,9.84
11171,0.14,-1.22,-0.39,1.21,-0.43,9.65
11176,0.25,-1.12,-0.41,1.47,-0.46,9.63
11182,0.35,-1.00,-0.42,1.65,-0.48,9.64
11187,0.42,-0.89,-0.41,1.74,-0.44,9.74
11192,0.45,-0.80,-0.41,1.84,-0.36,9.81
11197,0.44,-0.73,-0.41,1.84,-0.27,9.78
11202,0.41,-0.68,-0.40,1.74,-0.14,9.87
11207,0.35,-0.65,-0.41,1.65,-0.12,9.81
11212,0.29,-0.63,-0.41,1.57,-0.14,9.81
11217,0.23,-0.60,-0.40,1.54,-0.24,9.87
11222,0.16,-0.56,-0.38,1.59,-0.40,9.92
11227,0.10,-0.51,-0.34,1.56,-0.56,9.82
11232,0.07,-0.47,-0.29,1.48,-0.63,9.66
11237,0.04,-0.45,-0.24,1.34,-0.62,9.50
11242,0.04,-0.43,-0.20,1.14,-0.51,9.35
11247,0.04,-0.40,-0.16,0.99,-0.42,9.21
11252,0.05,-0.35,-0.12,1.08,-0.41,9.12
11257,0.07,-0.28,-0.07,1.22,-0.43,9.13
11262,0.07,-0.20,-0.01,1.31,-0.40,9.29
11267,0.05,-0.10,0.03,1.37,-0.35,9.57
11272,0.00,0.02,0.07,1.43,-0.30,9.85
11277,-0.08,0.15,0.11,1.41,-0.21,10.12
11282,-0.17,0.29,0.14,1.38,-0.09,10.45
11287,-0.29,0.46,0.16,1.40,-0.06,10.74
11293,-0.41,0.66,0.18,1.48,0.01,10.93
11298,-0.53,0.86,0.20,1.57,0.05,10.80
11303,-0.60,1.06,0.23,1.54,0.00,10.65
11308,-0.64,1.25,0.25,1.59,-0.13,10.52
11313,-0.64,1.41,0.28,1.68,-0.12,10.47
11318,-0.63,1.57,0.29,1.67,0.03,10.36
11323,-0.60,1.71,0.29,1.58,0.24,10.20
11328,-0.56,1.82,0.26,1.43,0.44,10.27
11333,-0.52,1.89,0.22,1.30,0.45,10.18
11338,-0.47,1.90,0.18,1.37,0.37,10.12
11343,-0.44,1.87,0.16,1.40,0.15,10.12
11348,-0.40,1.80,0.15,1.20,-0.26,9.88
11353,-0.36,1.68,0.14,0.91,-0.45,9.55
11358,-0.31,1.54,0.12,0.47,-0.53,9.39
11363,-0.26,1.36,0.11,0.29,-0.64,9.39
11368,-0.23,1.18,0.13,0.10,-0.94,9.65
11373,-0.20,1.03,0.16,0.12,-1.25,9.71
11378,-0.17,0.92,0.22,0.31,-1.26,9.90
11383,-0.17,0.85,0.27,0.17,-1.26,9.98
11388,-0.18,0.79,0.33,0.30,-1.12,10.05
11393,-0.18,0.74,0.38,0.08,-1.05,10.05
11398,-0.18,0.70,0.39,0.04,-0.94,9.90
11403,-0.16,0.69,0.39,0.22,-0.86,9.69
11409,-0.12,0.71,0.39,0.42,-0.67,9.75
11414,-0.09,0.77,0.36,0.51,-0.14,10.10
11419,-0.06,0.82,0.33,0.83,-0.73,9.92
11424,-0.04,0.85,0.33,0.91,-0.53,10.10
11429,-0.04,0.89,0.31,0.85,-0.33,10.27
11434,-0.05,0.90,0.28,0.79,-0.26,10.31
11439,-0.07,0.88,0.25,0.76,-0.31,10.31
11444,-0.08,0.84,0.22,0.63,-0.26,10.27
11449,-0.07,0.83,0.18,0.52,-0.17,10.25
11454,-0.03,0.84,0.13,0.39,-0.24,10.45
11459,0.01,0.89,0.08,0.29,-0.44,10.63
11464,0.07,0.94,0.05,0.31,-0.61,10.66
11469,0.13,0.98,0.05,0.19,-0.65,10.49
11474,0.23,1.01,0.06,0.04,-0.63,10.19
11479,0.34,1.05,0.07,-0.01,-0.68,9.90
11484,0.45,1.07,0.08,-0.06,-0.75,9.61
11489,0.54,1.09,0.09,-0.13,-0.80,9.53
11494,0.60,1.09,0.11,-0.12,-0.74,9.56
11499,0.60,1.09,0.13,-0.33,-0.51,9.72
11504,0.55,1.12,0.12,-0.42,-0.33,9.82
11509,0.47,1.16,0.11,-0.41,-0.26,9.84
11514,0.37,1.19,0.10,-0.46,-0.25,9.84
11519,0.27,1.21,0.09,-0.51,-0.27,9.82
11525,0.17,1.21,0.07,-0.48,-0.22,9.72
11530,0.08,1.21,0.06,-0.51,-0.25,9.67
11535,-0.00,1.21,0.04,-0.55,-0.30,9.74
11540,-0.09,1.21,0.02,-0.62,-0.36,9.70
11545,-0.15,1.20,0.01,-0.81,-0.40,9.74
11550,-0.21,1.17,0.01,-1.10,-0.49,9.84
11555,-0.24,1.11,0.03,-1.28,-0.52,9.91
11560,-0.26,1.05,0.05,-1.37,-0.56,9.99
11565,-0.25,0.99,0.07,-1.37,-0.57,10.12
11570,-0.23,0.95,0.09,-1.40,-0.51,10.25
11575,-0.19,0.93,0.10,-1.47,-0.51,10.25
11580,-0.10,0.92,0.10,-1.43,-0.60,10.07
11585,0.01,0.94,0.10,-1.17,-0.54,9.93
11590,0.13,0.96,0.10,-1.31,-0.51,10.01
11595,0.24,0.96,0.08,-1.25,-0.46,9.93
11600,0.34,0.95,0.07,-1.28,-0.46,9.84
11605,0.43,0.92,0.06,-1.31,-0.54,9.64
11610,0.49,0.88,0.04,-1.45,-0.49,9.60
11615,0.51,0.82,0.02,-1.64,-0.43,9.59
11620,0.52,0.74,0.00,-1.68,-0.42,9.34
11625,0.51,0.64,-0.03,-1.69,-0.34,9.43
11630,0.47,0.57,-0.07,-1.71,-0.16,9.67
11636,0.43,0.51,-0.10,-1.70,-0.20,9.51
11641,0.40,0.45,-0.13,-1.77,-0.22,9.36
11646,0.39,0.40,-0.17,-1.86,-0.15,9.49
11651,0.37,0.35,-0.20,-1.85,-0.04,9.67
11656,0.37,0.31,-0.22,-1.74,-0.08,9.63
11661,0.39,0.27,-0.23,-1.77,-0.19,9.52
11666,0.44,0.22,-0.23,-1.84,-0.32,9.34
11671,0.52,0.18,-0.23,-1.87,-0.43,9.16
11676,0.59,0.14,-0.22,-1.98,-0.43,9.27
11681,0.63,0.09,-0.20,-2.06,-0.36,9.62
11686,0.63,0.03,-0.18,-2.07,-0.32,9.80
11691,0.63,-0.04,-0.15,-2.02,-0.37,9.79
11696,0.63,-0.11,-0.12,-1.94,-0.33,9.65
11701,0.65,-0.18,-0.11,-1.92,-0.33,9.44
11706,0.69,-0.25,-0.10,-1.87,-0.19,9.29
11711,0.73,-0.30,-0.10,-1.90,-0.06,9.28
11716,0.77,-0.32,-0.12,-1.86,0.02,9.19
11721,0.82,-0.31,-0.14,-1.76,-0.03,8.97
11726,0.87,-0.31,-0.15,-1.81,-0.07,8.78
11731,0.90,-0.32,-0.16,-1.97,0.07,8.70
11736,0.91,-0.37,-0.16,-2.04,0.21,8.74
11741,0.87,-0.44,-0.16,-2.15,0.21,8.83
11746,0.81,-0.54,-0.14,-2.37,0.07,8.80
11752,0.72,-0.66,-0.14,-2.49,0.07,9.06
11757,0.62,-0.77,-0.12,-2.17,0.22,9.20
11762,0.52,-0.87,-0.10,-2.26,0.35,9.21
11767,0.46,-0.97,-0.10,-2.14,0.32,9.09
11772,0.44,-1.02,-0.11,-1.97,0.22,9.09
11777,0.44,-1.05,-0.14,-1.66,0.17,9.21
11782,0.45,-1.07,-0.17,-1.32,0.33,9.40
11787,0.46,-1.10,-0.19,-1.01,0.51,9.55
11792,0.45,-1.13,-0.24,-0.92,0.77,9.73
11797,0.45,-1.16,-0.28,-0.71,0.82,9.73
11802,0.45,-1.20,-0.32,-0.73,0.72,9.76
11807,0.48,-1.23,-0.37,-0.66,0.57,9.56
11812,0.53,-1.27,-0.39,-0.80,0.47,9.45
11817,0.58,-1.34,-0.40,-1.11,0.51,9.54
11822,0.63,-1.44,-0.42,-1.11,0.42,9.56
11827,0.69,-1.54,-0.42,-1.07,0.30,9.44
11832,0.76,-1.63,-0.41,-1.15,0.35,9.43
11837,0.83,-1.70,-0.39,-0.98,0.46,9.17
11842,0.92,-1.78,-0.34,-0.80,0.51,8.80
11847,1.02,-1.87,-0.30,-0.79,0.60,8.78
11852,1.06,-1.89,-0.27,-0.44,0.80,9.03
11857,1.05,-1.86,-0.24,-0.43,0.86,9.13
11862,0.98,-1.80,-0.22,-0.30,0.99,9.50
11868,0.85,-1.71,-0.20,-0.39,1.02,9.96
11873,0.68,-1.61,-0.17,-0.19,1.08,10.47
11878,0.49,-1.46,-0.16,0.03,0.90,10.64
11883,0.33,-1.27,-0.15,0.36,0.82,10.26
11888,0.27,-1.08,-0.14,0.45,0.95,9.92
11893,0.24,-0.92,-0.14,0.58,1.02,10.06
11898,0.22,-0.86,-0.13,0.54,1.10,10.12
11903,0.22,-0.89,-0.13,0.48,1.13,10.23
11908,0.24,-0.95,-0.14,0.59,1.04,10.12
11913,0.29,-1.03,-0.15,0.63,1.04,10.05
11918,0.36,-1.12,-0.17,0.61,1.05,10.04
11923,0.44,-1.20,-0.19,0.73,1.05,9.98
11928,0.51,-1.25,-0.20,0.86,1.13,10.01
11933,0.54,-1.27,-0.22,0.81,1.14,10.10
11938,0.55,-1.28,-0.23,0.74,1.35,10.06
11943,0.53,-1.28,-0.23,0.65,1.38,9.99
11948,0.49,-1.28,-0.23,0.66,1.33,9.94
11953,0.44,-1.25,-0.22,0.78,1.36,9.86
11958,0.39,-1.21,-0.19,0.88,1.37,9.72
11963,0.33,-1.16,-0.18,0.88,1.39,9.69
11968,0.26,-1.11,-0.16,0.83,1.41,9.68
11973,0.18,-1.04,-0.15,0.77,1.39,9.83
11978,0.08,-0.92,-0.14,1.24,1.44,9.92
11984,-0.02,-0.79,-0.10,1.19,1.47,9.82
11989,-0.08,-0.73,-0.09,1.02,1.31,9.61
11994,-0.11,-0.66,-0.07,1.22,1.28,9.78
11999,-0.16,-0.56,-0.07,1.37,1.28,9.89
12004,-0.20,-0.49,-0.05,1.32,1.39,9.99
12009,-0.24,-0.45,-0.04,1.28,1.52,10.10
12014,-0.27,-0.42,-0.03,1.38,1.54,10.16
12019,-0.30,-0.39,-0.03,1.55,1.48,10.17
12024,-0.31,-0.36,-0.02,1.65,1.48,10.13
12029,-0.30,-0.35,-0.02,1.63,1.49,10.00
12034,-0.29,-0.32,-0.02,1.60,1.57,10.01
12039,-0.29,-0.28,-0.04,1.63,1.64,10.16
12044,-0.31,-0.24,-0.05,1.73,1.66,10.33
12049,-0.34,-0.19,-0.06,1.86,1.67,10.40
12054,-0.36,-0.14,-0.08,1.79,1.67,10.41
12059,-0.37,-0.09,-0.09,1.79,1.60,10.40
12064,-0.37,-0.03,-0.10,1.80,1.49,10.38
12069,-0.37,0.02,-0.10,1.73,1.43,10.39
12074,-0.37,0.05,-0.10,1.63,1.38,10.36
12079,-0.38,0.07,-0.09,1.54,1.24,10.23
12084,-0.38,0.06,-0.07,1.35,1.16,10.06
12089,-0.38,0.02,-0.06,1.27,1.12,9.92
12095,-0.38,-0.02,-0.04,1.18,1.11,9.90
12100,-0.40,-0.05,-0.02,1.14,1.12,9.96
12105,-0.43,-0.09,0.00,1.12,1.10,10.16
12110,-0.48,-0.12,0.03,1.04,1.04,10.36
12115,-0.52,-0.14,0.04,1.01,1.07,10.47
12120,-0.55,-0.12,0.07,1.11,0.97,10.38
12125,-0.54,-0.09,0.09,1.20,0.77,10.18
12130,-0.49,-0.04,0.12,1.23,0.67,9.97
12135,-0.44,0.00,0.14,1.18,0.68,9.86
12140,-0.38,0.06,0.16,1.16,0.72,9.78
12145,-0.34,0.11,0.17,1.16,0.69,9.71
12150,-0.32,0.15,0.19,1.17,0.66,9.73
12155,-0.33,0.19,0.19,1.20,0.66,9.78
12160,-0.37,0.22,0.20,1.25,0.73,9.80
12165,-0.42,0.25,0.21,1.21,0.80,9.78
12170,-0.48,0.27,0.21,1.24,0.79,9.76
12175,-0.54,0.30,0.21,1.25,0.72,9.75
12180,-0.60,0.34,0.21,1.26,0.63,9.71
12185,-0.64,0.39,0.21,1.30,0.59,9.58
12190,-0.67,0.43,0.22,1.32,0.60,9.57
12195,-0.71,0.48,0.22,1.26,0.60,9.73
12200,-0.76,0.53,0.23,1.24,0.57,9.79
12205,-0.80,0.58,0.25,1.22,0.49,9.67
12211,-0.82,0.62,0.26,1.15,0.46,9.65
12216,-0.86,0.64,0.27,1.05,0.45,9.71
12221,-0.89,0.65,0.28,0.95,0.45,9.84
12226,-0.92,0.66,0.29,1.04,0.34,9.76
12231,-0.93,0.67,0.30,0.98,0.29,9.99
12236,-0.94,0.68,0.30,1.03,0.16,10.00
12241,-0.93,0.68,0.31,0.99,0.19,10.16
12246,-0.91,0.69,0.31,0.97,0.15,10.19
12251,-0.88,0.70,0.32,1.20,0.05,10.19
12256,-0.86,0.71,0.32,1.03,-0.10,9.92
12261,-0.80,0.68,0.33,1.15,-0.15,9.61
12266,-0.76,0.66,0.36,1.10,-0.03,9.65
12271,-0.74,0.61,0.38,0.83,-0.04,9.67
12276,-0.73,0.54,0.38,0.86,-0.15,9.57
12281,-0.73,0.48,0.40,0.88,-0.25,9.57
12286,-0.75,0.45,0.40,0.86,-0.27,9.64
12291,-0.79,0.44,0.40,0.83,-0.31,9.74
12296,-0.84,0.44,0.39,0.80,-0.37,9.73
12301,-0.90,0.44,0.38,0.74,-0.45,9.83
12306,-0.96,0.45,0.36,0.74,-0.42,10.09
12311,-1.02,0.47,0.36,0.67,-0.35,10.26
12316,-1.07,0.48,0.34,0.68,-0.44,10.26
12321,-1.08,0.50,0.33,0.75,-0.59,10.26
12327,-1.05,0.54,0.31,0.83,-0.67,10.27
12332,-1.00,0.59,0.30,0.75,-0.65,10.34
12337,-0.94,0.62,0.30,0.67,-0.59,10.49
12342,-0.87,0.64,0.29,0.68,-0.62,10.59
12347,-0.80,0.66,0.27,0.69,-0.64,10.64
12352,-0.73,0.67,0.26,0.68,-0.64,10.56
12357,-0.64,0.67,0.24,0.62,-0.69,10.46
12362,-0.56,0.66,0.23,0.66,-0.71,10.37
12367,-0.49,0.66,0.21,0.74,-0.73,10.24
12372,-0.42,0.65,0.19,0.64,-0.67,10.19
12377,-0.37,0.61,0.16,0.37,-0.65,10.14
12382,-0.34,0.57,0.13,0.38,-0.66,10.04
12387,-0.32,0.51,0.10,0.35,-0.71,10.06
12392,-0.31,0.44,0.08,0.19,-0.68,10.17
12397,-0.30,0.37,0.06,0.11,-0.77,10.13
12402,-0.27,0.30,0.04,0.14,-0.88,9.98
12407,-0.22,0.24,0.03,0.01,-1.01,9.78
12412,-0.15,0.17,0.04,-0.10,-1.06,9.60
12417,-0.08,0.13,0.04,-0.20,-1.12,9.43
12422,-0.02,0.10,0.06,-0.13,-1.09,9.39
12427,0.01,0.10,0.08,-0.26,-1.09,9.47
12432,-0.00,0.10,0.09,-0.19,-1.00,9.56
12437,-0.04,0.11,0.12,-0.31,-0.94,9.61
12443,-0.10,0.12,0.13,-0.45,-0.97,9.63
12448,-0.17,0.15,0.14,-0.34,-0.99,9.72
12453,-0.24,0.19,0.15,-0.22,-1.03,9.72
12458,-0.31,0.25,0.15,-0.18,-1.09,9.66
12463,-0.37,0.30,0.17,-0.26,-1.10,9.60
12468,-0.41,0.34,0.18,-0.36,-1.10,9.53
12473,-0.45,0.37,0.19,-0.53,-1.16,9.58
12478,-0.48,0.38,0.20,-0.60,-1.16,9.72
12483,-0.52,0.38,0.22,-0.66,-1.18,9.87
12488,-0.54,0.39,0.24,-0.63,-1.23,9.94
12493,-0.54,0.39,0.25,-0.65,-1.34,9.93
12498,-0.52,0.39,0.27,-0.56,-1.41,9.81
12503,-0.46,0.39,0.29,-0.43,-1.48,9.59
12508,-0.38,0.37,0.31,-0.43,-1.47,9.39
12513,-0.31,0.32,0.33,-0.54,-1.44,9.35
12518,-0.26,0.26,0.33,-0.56,-1.37,9.45
12523,-0.24,0.21,0.34,-0.58,-1.33,9.56
12528,-0.25,0.16,0.33,-0.57,-1.37,9.64
12533,-0.28,0.12,0.31,-0.51,-1.37,9.71
12538,-0.32,0.09,0.30,-0.48,-1.29,9.81
12543,-0.36,0.07,0.28,-0.45,-1.28,9.83
12548,-0.39,0.05,0.26,-0.38,-1.35,9.81
12554,-0.39,0.04,0.24,-0.23,-1.36,9.82
12559,-0.37,0.03,0.23,-0.31,-1.44,9.79
12564,-0.34,0.05,0.22,-0.31,-1.52,9.70
12569,-0.29,0.08,0.22,-0.18,-1.60,9.65
12574,-0.24,0.13,0.23,-0.12,-1.61,9.67
12579,-0.21,0.17,0.24,-0.24,-1.59,9.72
12584,-0.20,0.19,0.24,-0.30,-1.54,9.83
12589,-0.23,0.21,0.23,-0.34,-1.52,9.92
12594,-0.26,0.22,0.23,-0.34,-1.54,9.87
12599,-0.29,0.23,0.22,-0.31,-1.60,9.74
12604,-0.31,0.24,0.22,-0.36,-1.65,9.77
12609,-0.33,0.25,0.21,-0.38,-1.66,9.91
12614,-0.35,0.26,0.20,-0.40,-1.67,10.03
12619,-0.37,0.26,0.20,-0.36,-1.75,9.93
12624,-0.37,0.24,0.21,-0.37,-1.83,9.73
12629,-0.34,0.21,0.21,-0.41,-1.89,9.63
12634,-0.30,0.20,0.21,-0.44,-1.89,9.64
12639,-0.27,0.18,0.21,-0.40,-1.86,9.69
12644,-0.25,0.18,0.21,-0.36,-1.85,9.74
12649,-0.23,0.18,0.21,-0.35,-1.83,9.82
12654,-0.23,0.19,0.20,-0.34,-1.80,9.87
12659,-0.23,0.20,0.20,-0.32,-1.80,9.87
12664,-0.25,0.22,0.19,-0.34,-1.81,9.83
12670,-0.26,0.24,0.19,-0.40,-1.82,9.80
12675,-0.29,0.26,0.19,-0.48,-1.85,9.82
12680,-0.32,0.29,0.19,-0.50,-1.87,9.85
12685,-0.36,0.31,0.20,-0.54,-1.92,9.84
12690,-0.38,0.31,0.21,-0.59,-1.97,9.75
12695,-0.40,0.31,0.22,-0.65,-2.00,9.70
12700,-0.41,0.30,0.23,-0.68,-2.02,9.75
12705,-0.42,0.30,0.24,-0.68,-2.06,9.80
12710,-0.43,0.31,0.24,-0.70,-2.16,9.70
12715,-0.42,0.32,0.25,-0.63,-2.17,9.62
12720,-0.41,0.33,0.26,-0.69,-2.11,9.68
12725,-0.42,0.34,0.26,-0.72,-2.07,9.78
12730,-0.44,0.34,0.26,-0.76,-2.08,9.87
12735,-0.47,0.33,0.25,-0.77,-2.07,9.89
12740,-0.48,0.32,0.25,-0.70,-2.07,9.87
12745,-0.49,0.33,0.24,-0.75,-2.12,9.87
12750,-0.48,0.33,0.24,-0.74,-2.15,9.79
12755,-0.46,0.33,0.24,-0.77,-2.15,9.72
12760,-0.44,0.33,0.24,-0.80,-2.13,9.67
12765,-0.42,0.31,0.24,-0.89,-2.08,9.71
12770,-0.40,0.29,0.23,-1.00,-2.06,9.89
12775,-0.40,0.26,0.21,-1.03,-2.07,10.00
12780,-0.40,0.24,0.20,-0.99,-2.06,10.07
12786,-0.37,0.23,0.19,-0.97,-2.08,10.18
12791,-0.34,0.22,0.18,-1.01,-2.14,10.32
12796,-0.30,0.22,0.16,-0.99,-2.12,10.41
12801,-0.24,0.22,0.15,-0.95,-2.06,10.52
12806,-0.16,0.23,0.14,-0.89,-2.11,10.44
12811,-0.06,0.23,0.12,-0.83,-2.20,10.23
12816,0.07,0.23,0.11,-0.81,-2.21,9.96
12821,0.20,0.22,0.09,-0.83,-2.24,9.73
12826,0.32,0.20,0.07,-0.81,-2.22,9.59
12831,0.42,0.17,0.05,-0.78,-2.16,9.46
12836,0.49,0.12,0.03,-0.77,-2.09,9.31
12841,0.52,0.06,0.01,-0.80,-2.04,9.25
12846,0.52,-0.00,-0.02,-0.87,-1.97,9.20
12851,0.49,-0.06,-0.05,-0.95,-1.93,9.15
12856,0.44,-0.11,-0.08,-1.01,-1.91,9.20
12861,0.37,-0.15,-0.10,-1.01,-1.93,9.26
12866,0.29,-0.18,-0.12,-1.00,-1.95,9.31
12871,0.22,-0.20,-0.12,-0.97,-1.94,9.31
12876,0.16,-0.21,-0.11,-1.00,-1.97,9.18
12881,0.12,-0.20,-0.10,-1.11,-1.99,9.11
12886,0.09,-0.19,-0.09,-1.26,-2.02,9.25
12891,0.05,-0.17,-0.08,-1.37,-2.06,9.49
12896,0.00,-0.16,-0.06,-1.45,-2.08,9.66
12902,-0.03,-0.15,-0.04,-1.46,-2.08,9.72
12907,-0.03,-0.13,-0.00,-1.40,-2.13,9.65
12912,0.01,-0.11,0.03,-1.37,-2.21,9.65
12917,0.06,-0.10,0.06,-1.32,-2.22,9.74
12922,0.12,-0.09,0.10,-1.33,-2.22,9.77
12927,0.17,-0.08,0.13,-1.26,-2.18,9.75
12932,0.22,-0.09,0.16,-1.25,-2.18,9.68
12937,0.27,-0.09,0.18,-1.16,-2.15,9.61
12942,0.30,-0.09,0.20,-1.15,-2.09,9.56
12947,0.31,-0.10,0.20,-1.09,-2.04,9.51
12952,0.31,-0.12,0.21,-1.10,-1.94,9.53
12957,0.29,-0.15,0.21,-1.03,-2.00,9.51
12962,0.27,-0.17,0.20,-1.03,-2.02,9.52
12967,0.25,-0.17,0.19,-0.96,-2.09,9.37
12972,0.25,-0.15,0.18,-0.78,-2.17,9.44
12977,0.25,-0.13,0.18,-0.74,-2.20,9.64
12982,0.22,-0.13,0.17,-0.76,-2.04,9.99
12987,0.18,-0.12,0.16,-0.70,-1.84,10.14
12992,0.16,-0.11,0.15,-0.63,-1.85,10.03
12997,0.16,-0.09,0.14,-0.58,-1.86,10.13
13002,0.18,-0.06,0.14,-0.41,-2.04,10.13
13007,0.21,-0.06,0.13,-0.39,-1.86,10.35
13012,0.23,-0.06,0.11,-0.35,-1.64,10.67
13018,0.25,-0.05,0.08,-0.24,-1.49,11.00
13023,0.26,-0.04,0.04,-0.13,-1.38,11.29
13028,0.29,-0.02,-0.00,0.05,-1.35,11.41
13033,0.36,0.02,-0.04,0.24,-1.45,11.26
13038,0.49,0.07,-0.08,0.40,-1.61,10.90
13043,0.66,0.12,-0.11,0.50,-1.69,10.53
13048,0.86,0.17,-0.13,0.39,-1.70,10.19
13053,1.06,0.20,-0.16,0.23,-1.68,9.83
13058,1.22,0.20,-0.18,-0.04,-1.65,9.66
13063,1.32,0.16,-0.20,-0.27,-1.57,9.56
13068,1.36,0.08,-0.22,-0.54,-1.44,9.49
13073,1.33,-0.00,-0.25,-0.77,-1.30,9.25
13078,1.29,-0.09,-0.27,-0.95,-1.28,9.08
13083,1.23,-0.15,-0.29,-0.98,-1.30,9.02
13088,1.15,-0.21,-0.29,-1.04,-1.24,9.08
13093,1.05,-0.26,-0.29,-1.12,-1.15,9.33
13098,0.92,-0.28,-0.29,-1.12,-1.16,9.58
13103,0.78,-0.28,-0.28,-1.16,-1.11,9.61
13108,0.65,-0.27,-0.27,-1.13,-1.06,9.61
13113,0.52,-0.24,-0.26,-1.10,-1.01,9.82
13118,0.39,-0.21,-0.27,-1.10,-0.92,10.04
13123,0.29,-0.17,-0.26,-1.10,-0.83,10.12
13128,0.23,-0.14,-0.24,-1.18,-0.84,9.95
13134,0.22,-0.10,-0.24,-1.17,-0.91,9.84
13139,0.26,-0.07,-0.23,-1.10,-1.03,9.90
13144,0.30,-0.08,-0.21,-1.04,-1.14,10.01
13149,0.35,-0.09,-0.19,-1.06,-1.14,9.99
13154,0.42,-0.09,-0.18,-1.15,-1.03,9.99
13159,0.51,-0.09,-0.16,-1.03,-1.17,9.80
13164,0.60,-0.10,-0.13,-1.04,-1.25,9.82
13169,0.68,-0.13,-0.11,-1.17,-1.19,9.98
13174,0.73,-0.16,-0.09,-1.19,-1.12,10.02
13179,0.77,-0.20,-0.07,-1.07,-1.06,9.90
13184,0.81,-0.24,-0.06,-1.13,-1.05,9.76
13189,0.84,-0.28,-0.06,-0.98,-1.02,9.67
13194,0.85,-0.32,-0.06,-0.65,-0.80,9.69
13199,0.84,-0.35,-0.06,-0.64,-0.70,9.83
13204,0.80,-0.38,-0.08,-0.57,-0.68,9.95
13209,0.75,-0.40,-0.10,-0.42,-0.56,9.85
13214,0.73,-0.40,-0.11,-0.41,-0.53,9.63
13219,0.74,-0.39,-0.14,-0.34,-0.61,9.49
13224,0.75,-0.38,-0.15,-0.29,-0.64,9.45
13229,0.76,-0.39,-0.16,-0.43,-0.53,9.52
13234,0.74,-0.41,-0.17,-0.57,-0.42,9.66
13239,0.71,-0.42,-0.17,-0.51,-0.47,9.78
13245,0.67,-0.42,-0.16,-0.50,-0.51,9.75
13250,0.64,-0.40,-0.15,-0.40,-0.51,9.79
13255,0.61,-0.36,-0.14,-0.28,-0.55,9.79
13260,0.58,-0.33,-0.12,-0.28,-0.48,9.70
13265,0.56,-0.29,-0.11,-0.32,-0.35,9.70
13270,0.52,-0.26,-0.10,-0.30,-0.30,9.72
13275,0.48,-0.23,-0.08,-0.29,-0.32,9.73
13280,0.45,-0.22,-0.06,-0.42,-0.34,9.73
13285,0.40,-0.22,-0.06,-0.45,-0.31,9.85
13290,0.35,-0.22,-0.05,-0.39,-0.23,10.07
13295,0.30,-0.22,-0.05,-0.31,-0.12,10.09
13300,0.26,-0.22,-0.05,-0.25,-0.07,9.98
13305,0.27,-0.21,-0.06,-0.23,-0.08,9.85
13310,0.30,-0.20,-0.08,-0.14,-0.14,9.80
13315,0.34,-0.18,-0.09,-0.09,-0.14,9.72
13320,0.39,-0.16,-0.09,-0.02,-0.13,9.65
13325,0.43,-0.15,-0.10,-0.14,0.01,9.82
13330,0.44,-0.16,-0.11,-0.30,0.07,10.01
13335,0.43,-0.18,-0.12,-0.30,-0.02,10.02
13340,0.43,-0.22,-0.12,-0.25,-0.13,9.84
13345,0.44,-0.26,-0.11,-0.34,-0.12,9.70
13350,0.46,-0.29,-0.11,-0.40,-0.14,9.77
13355,0.47,-0.32,-0.11,-0.40,-0.15,9.99
13361,0.47,-0.33,-0.11,-0.34,-0.10,10.07
13366,0.48,-0.33,-0.11,-0.31,-0.05,10.10
13371,0.50,-0.31,-0.10,-0.21,-0.09,10.04
13376,0.54,-0.31,-0.08,-0.14,-0.13,9.74
13381,0.60,-0.29,-0.06,-0.12,-0.09,9.61
13386,0.65,-0.28,-0.05,-0.12,0.03,9.68
13391,0.67,-0.27,-0.03,-0.08,0.07,9.72
13396,0.66,-0.26,-0.02,-0.05,0.16,9.88
13401,0.62,-0.26,-0.03,0.01,0.26,9.99
13406,0.56,-0.25,-0.03,0.03,0.37,9.98
13411,0.50,-0.24,-0.04,0.02,0.46,10.13
13416,0.44,-0.21,-0.05,0.07,0.46,10.11
13421,0.40,-0.17,-0.06,0.20,0.46,10.12
13426,0.38,-0.10,-0.06,0.24,0.44,10.02
13431,0.39,-0.05,-0.06,0.20,0.41,9.85
13436,0.41,-0.00,-0.05,0.14,0.45,9.87
13441,0.42,0.03,-0.03,0.06,0.49,9.97
13446,0.42,0.05,-0.01,-0.01,0.50,10.01
13451,0.41,0.06,0.01,-0.13,0.58,10.00
13456,0.41,0.05,0.02,-0.12,0.63,9.90
13461,0.41,0.04,0.03,-0.05,0.65,9.76
13466,0.41,0.02,0.04,-0.05,0.73,9.68
13471,0.42,-0.00,0.04,-0.01,0.82,9.56
13477,0.43,-0.03,0.04,0.05,0.83,9.44
13482,0.43,-0.06,0.04,0.06,0.87,9.39
13487,0.42,-0.09,0.02,0.05,0.91,9.39
13492,0.39,-0.11,0.01,0.08,0.93,9.44
13497,0.35,-0.12,-0.01,0.12,0.90,9.45
13502,0.31,-0.13,-0.03,0.14,0.92,9.50
13507,0.25,-0.14,-0.05,0.16,0.98,9.75
13512,0.18,-0.14,-0.06,0.16,1.00,9.87
13517,0.14,-0.13,-0.07,0.13,0.91,9.74
13522,0.14,-0.12,-0.07,0.12,0.85,9.63
13527,0.14,-0.09,-0.06,0.11,0.84,9.73
13532,0.15,-0.07,-0.05,0.06,0.84,9.82
13537,0.16,-0.04,-0.04,0.02,0.87,9.83
13542,0.16,-0.02,-0.03,0.05,0.88,9.80
13547,0.16,0.00,-0.01,0.08,0.90,9.81
13552,0.14,0.03,-0.01,0.06,0.91,9.92
13557,0.11,0.06,0.00,0.09,0.90,10.08
13562,0.06,0.09,0.00,0.07,0.91,10.17
13567,-0.00,0.12,0.01,-0.04,0.94,10.24
13572,-0.07,0.13,0.01,-0.12,0.90,10.30
13577,-0.12,0.14,0.02,-0.17,0.81,10.27
13582,-0.15,0.14,0.03,-0.21,0.80,10.18
13588,-0.16,0.14,0.04,-0.20,0.78,10.07
13593,-0.15,0.13,0.05,-0.15,0.68,10.01
13598,-0.14,0.14,0.06,-0.16,0.66,9.95
13603,-0.12,0.15,0.05,-0.16,0.66,10.02
13608,-0.14,0.12,0.06,-0.15,0.83,10.11
13613,-0.16,0.06,0.07,-0.42,0.87,10.33
13618,-0.20,0.03,0.03,-0.15,0.73,10.46
13623,-0.24,0.03,0.03,-0.05,0.77,10.62
13628,-0.27,0.02,0.02,-0.20,0.84,10.75
13633,-0.27,0.04,0.00,-0.07,0.70,10.61
13638,-0.24,0.06,-0.00,-0.02,0.60,10.47
13643,-0.19,0.08,-0.00,-0.09,0.70,10.42
13648,-0.11,0.09,0.00,-0.08,0.55,10.16
13653,-0.03,0.08,0.01,-0.17,0.59,10.29
13658,0.01,0.08,0.01,-0.18,0.59,10.31
13663,0.04,0.06,0.03,-0.19,0.60,10.21
13668,0.06,0.04,0.04,-0.30,0.62,10.04
13673,0.08,0.01,0.05,-0.38,0.64,9.98
13678,0.08,-0.01,0.06,-0.36,0.66,9.90
13683,0.08,-0.03,0.08,-0.32,0.71,9.85
13688,0.06,-0.04,0.09,-0.26,0.80,9.85
13693,0.04,-0.04,0.11,-0.17,0.86,9.86
13698,0.01,-0.05,0.11,-0.18,0.97,9.87
13704,-0.04,-0.05,0.11,-0.12,1.07,10.00
13709,-0.10,-0.04,0.10,-0.03,1.02,10.15
13714,-0.16,-0.04,0.10,0.00,0.99,10.26
13719,-0.22,-0.02,0.09,0.09,0.98,10.20
13724,-0.24,0.00,0.08,0.14,0.98,10.13
13729,-0.23,0.02,0.07,0.29,1.00,10.17
13734,-0.22,0.05,0.06,0.32,1.01,10.21
13739,-0.20,0.08,0.05,0.37,0.97,10.21
13744,-0.17,0.10,0.04,0.31,0.89,10.17
13749,-0.14,0.10,0.03,0.23,0.84,10.14
13754,-0.11,0.10,0.02,0.20,0.80,10.19
13759,-0.09,0.09,0.01,0.17,0.75,10.18
13764,-0.09,0.09,0.00,0.23,0.75,10.15
13769,-0.08,0.09,-0.00,0.23,0.76,10.10
13774,-0.07,0.08,-0.01,0.15,0.75,10.13
13779,-0.06,0.09,-0.02,0.15,0.72,10.14
13784,-0.06,0.10,-0.02,0.10,0.68,10.18
13789,-0.06,0.10,-0.02,0.06,0.64,10.21
13794,-0.06,0.09,-0.02,0.06,0.55,10.22
13799,-0.06,0.09,-0.02,-0.00,0.53,10.15
13804,-0.06,0.10,-0.03,-0.07,0.53,10.10
13809,-0.06,0.11,-0.03,-0.06,0.50,10.12
13814,-0.07,0.12,-0.02,-0.10,0.47,10.16
13820,-0.08,0.12,-0.01,-0.15,0.51,10.09
13825,-0.09,0.12,-0.00,-0.21,0.51,9.97
13830,-0.09,0.10,0.01,-0.28,0.45,9.80
13835,-0.09,0.08,0.03,-0.36,0.42,9.72
13840,-0.10,0.06,0.04,-0.42,0.48,9.76
13845,-0.13,0.04,0.05,-0.45,0.49,9.88
13850,-0.17,0.03,0.05,-0.45,0.46,9.88
13855,-0.21,0.02,0.06,-0.47,0.44,9.83
13860,-0.24,0.03,0.06,-0.51,0.46,9.76
13865,-0.26,0.06,0.06,-0.52,0.43,9.78
13870,-0.28,0.09,0.07,-0.53,0.40,9.88
13875,-0.30,0.12,0.07,-0.48,0.47,9.98
13880,-0.31,0.14,0.08,-0.39,0.48,10.01
13885,-0.32,0.15,0.08,-0.37,0.46,10.00
13890,-0.31,0.16,0.08,-0.37,0.44,9.97
13895,-0.29,0.16,0.08,-0.35,0.47,10.03
13900,-0.28,0.17,0.08,-0.25,0.54,10.06
13905,-0.27,0.17,0.07,-0.21,0.55,10.04
13910,-0.26,0.17,0.07,-0.08,0.55,9.92
13915,-0.23,0.17,0.06,-0.05,0.54,9.78
13920,-0.20,0.17,0.05,-0.06,0.54,9.78
13925,-0.19,0.18,0.04,0.02,0.57,9.86
13930,-0.19,0.18,0.03,-0.00,0.63,9.87
13936,-0.21,0.17,0.03,-0.07,0.63,9.97
13941,-0.25,0.15,0.02,-0.09,0.61,10.05
13946,-0.27,0.14,0.01,-0.14,0.59,10.05
13951,-0.29,0.13,-0.00,-0.05,0.60,10.04
13956,-0.30,0.13,-0.01,0.03,0.54,9.96
13961,-0.28,0.12,-0.02,0.05,0.54,9.82
13966,-0.26,0.12,-0.03,0.01,0.54,9.74
13971,-0.25,0.11,-0.03,-0.02,0.56,9.74
13976,-0.25,0.10,-0.04,-0.03,0.52,9.84
13981,-0.27,0.08,-0.06,-0.07,0.52,9.97
13986,-0.31,0.06,-0.08,-0.06,0.47,10.04
13991,-0.33,0.06,-0.09,0.02,0.35,9.96
13996,-0.33,0.06,-0.10,0.08,0.26,9.78
14001,-0.31,0.06,-0.10,0.08,0.22,9.64
14006,-0.30,0.06,-0.11,0.04,0.20,9.70
14011,-0.30,0.06,-0.12,-0.01,0.19,9.93
14016,-0.34,0.07,-0.12,-0.07,0.09,10.16
14021,-0.38,0.10,-0.12,-0.14,-0.03,10.15
14026,-0.42,0.13,-0.12,-0.17,-0.10,10.06
14031,-0.44,0.16,-0.12,-0.25,-0.17,10.02
14036,-0.45,0.20,-0.10,-0.38,-0.25,9.98
14041,-0.46,0.22,-0.09,-0.45,-0.27,9.90
14047,-0.46,0.23,-0.06,-0.47,-0.41,9.87
14052,-0.46,0.23,-0.03,-0.67,-0.41,9.84
14057,-0.46,0.23,-0.01,-0.66,-0.42,9.81
14062,-0.47,0.25,0.01,-0.66,-0.48,9.84
14067,-0.49,0.24,0.02,-0.54,-0.49,9.85
14072,-0.45,0.13,0.06,-1.40,-0.66,9.72
14077,-0.37,0.01,0.11,-1.25,-0.49,10.39
14082,-0.37,0.13,0.15,-0.37,-0.69,10.00
14087,-0.38,0.37,0.13,-0.13,-0.76,10.09
14092,-0.42,0.45,0.15,-0.84,-0.07,9.90
14097,-0.50,0.35,0.15,-1.20,0.07,10.33
14102,-0.54,0.28,0.15,-0.77,-0.45,10.04
14107,-0.55,0.25,0.12,-0.51,-0.67,9.96
14112,-0.47,0.18,0.12,-0.77,-0.46,10.13
14117,-0.37,0.13,0.12,-0.51,-0.48,10.43
14122,-0.30,0.16,0.11,-0.17,-0.61,10.30
14127,-0.22,0.19,0.08,-0.30,-0.54,10.04
14132,-0.13,0.19,0.05,-0.35,-0.43,9.99
14137,-0.07,0.15,0.03,-0.33,-0.34,9.99
14142,-0.03,0.09,0.01,-0.36,-0.30,9.95
14147,-0.00,0.06,-0.02,-0.13,-0.29,10.06
14152,-0.01,0.06,-0.08,-0.01,-0.33,9.81
14157,0.04,-0.03,-0.08,-0.46,-0.20,9.78
14163,0.07,-0.08,-0.13,-0.03,-0.40,9.89
14168,0.10,-0.09,-0.16,0.03,-0.43,9.75
14173,0.11,-0.09,-0.19,-0.16,-0.28,9.82
14178,0.12,-0.13,-0.21,-0.40,-0.24,10.03
14183,0.07,-0.13,-0.25,-0.11,-0.38,10.10
14188,0.02,-0.09,-0.26,-0.17,-0.42,9.83
14193,0.00,-0.06,-0.27,-0.51,-0.50,9.68
14198,-0.01,-0.01,-0.29,-0.46,-0.65,9.64
14203,-0.03,0.07,-0.29,-0.46,-0.61,9.79
14208,-0.09,0.10,-0.28,-0.75,-0.50,9.87
14213,-0.15,0.06,-0.27,-1.01,-0.49,9.82
14218,-0.19,0.01,-0.25,-1.05,-0.68,9.77
14223,-0.21,-0.00,-0.24,-0.91,-0.85,9.67
14228,-0.21,0.01,-0.22,-0.89,-0.81,9.74
14233,-0.22,0.03,-0.20,-0.94,-0.75,9.73
14238,-0.22,0.05,-0.18,-0.96,-0.73,9.71
14243,-0.23,0.08,-0.16,-0.96,-0.76,9.72
14248,-0.23,0.09,-0.14,-1.03,-0.73,9.79
14253,-0.22,0.10,-0.12,-1.00,-0.70,9.82
14258,-0.19,0.12,-0.10,-0.89,-0.67,9.80
14263,-0.16,0.14,-0.08,-0.82,-0.65,9.81
14268,-0.12,0.16,-0.07,-0.84,-0.59,9.85
14273,-0.09,0.17,-0.06,-0.85,-0.53,9.82
14279,-0.06,0.15,-0.03,-0.98,-0.45,9.77
14284,-0.01,0.10,-0.01,-0.98,-0.49,9.82
14289,0.04,0.07,-0.01,-0.79,-0.57,9.74
14294,0.09,0.08,-0.02,-0.61,-0.48,9.77
14299,0.13,0.06,-0.02,-0.81,-0.32,9.85
14304,0.13,0.02,-0.03,-0.85,-0.33,9.99
14309,0.11,-0.00,-0.05,-0.53,-0.31,9.98
14314,0.07,0.08,-0.07,-0.40,-0.43,9.52
14319,0.05,0.16,-0.09,-0.31,-0.28,9.82
14324,-0.01,0.07,-0.07,-1.05,0.03,9.79
14329,-0.04,-0.13,-0.05,-1.28,-0.36,9.76
14334,-0.01,-0.17,-0.07,-0.38,-0.89,9.43
14339,0.04,-0.12,-0.06,-0.33,-0.71,9.45
14344,0.09,-0.11,-0.04,-0.73,-0.46,9.58
14349,0.11,-0.13,-0.04,-0.62,-0.50,9.69
14354,0.10,-0.13,-0.03,-0.44,-0.50,9.73
14359,0.08,-0.12,-0.02,-0.61,-0.44,9.69
14364,0.05,-0.11,-0.02,-0.45,-0.37,9.78
14369,0.02,-0.11,-0.00,-0.57,-0.28,9.83
14374,-0.02,-0.09,0.00,-0.51,-0.32,9.88
14379,-0.05,-0.06,0.01,-0.42,-0.37,9.77
14384,-0.06,-0.05,0.01,-0.48,-0.35,9.86
14389,-0.07,-0.04,0.02,-0.58,-0.29,9.94
14395,-0.08,-0.03,0.03,-0.55,-0.28,9.95
14400,-0.07,-0.01,0.04,-0.48,-0.34,9.83
14405,-0.04,0.01,0.04,-0.39,-0.36,9.72
14410,-0.01,0.02,0.05,-0.39,-0.35,9.63
14415,0.02,0.02,0.05,-0.45,-0.35,9.61
14420,0.03,0.01,0.04,-0.47,-0.33,9.71
14425,0.00,-0.01,0.04,-0.52,-0.33,9.86
14430,-0.03,-0.02,0.03,-0.54,-0.35,9.91
14435,-0.06,-0.04,0.02,-0.59,-0.40,9.92
14440,-0.09,-0.05,0.02,-0.59,-0.45,10.05
14445,-0.12,-0.06,0.01,-0.61,-0.56,10.22
14450,-0.13,-0.08,0.01,-0.54,-0.60,10.34
14455,-0.13,-0.08,0.01,-0.54,-0.62,10.32
14460,-0.10,-0.08,0.01,-0.56,-0.66,10.23
14465,-0.06,-0.08,0.01,-0.58,-0.69,10.19
14470,-0.00,-0.08,0.01,-0.51,-0.70,10.15
14475,0.05,-0.07,0.01,-0.47,-0.67,10.11
14480,0.11,-0.07,0.01,-0.49,-0.62,10.03
14485,0.16,-0.08,0.00,-0.53,-0.56,9.96
14490,0.21,-0.09,-0.00,-0.54,-0.53,9.93
14495,0.24,-0.10,-0.01,-0.59,-0.48,9.91
14500,0.25,-0.12,-0.02,-0.64,-0.48,9.88
14505,0.24,-0.14,-0.01,-0.70,-0.47,9.88
14511,0.23,-0.15,-0.01,-0.71,-0.50,9.79
14516,0.21,-0.17,0.01,-0.77,-0.50,9.64
14521,0.20,-0.17,0.03,-0.81,-0.48,9.59
14526,0.18,-0.16,0.04,-0.81,-0.44,9.66
14531,0.14,-0.13,0.06,-0.71,-0.40,9.72
14536,0.10,-0.10,0.09,-0.65,-0.43,9.70
14541,0.07,-0.07,0.10,-0.66,-0.42,9.62
14546,0.03,-0.05,0.11,-0.66,-0.35,9.64
14551,-0.01,-0.03,0.11,-0.59,-0.29,9.75
14556,-0.07,-0.02,0.11,-0.49,-0.26,9.85
14561,-0.13,-0.01,0.10,-0.42,-0.23,9.88
14566,-0.17,0.00,0.08,-0.35,-0.23,9.94
14571,-0.21,0.01,0.06,-0.24,-0.26,10.08
14576,-0.24,0.03,0.04,-0.19,-0.30,10.19
14581,-0.25,0.03,0.02,-0.12,-0.37,10.18
14586,-0.25,0.04,0.00,-0.03,-0.45,10.17
14591,-0.22,0.03,-0.02,-0.09,-0.51,10.17
14596,-0.18,0.02,-0.04,-0.17,-0.60,10.21
14601,-0.14,0.01,-0.06,-0.21,-0.63,10.20
14606,-0.10,-0.00,-0.07,-0.22,-0.68,10.14
14611,-0.06,-0.01,-0.08,-0.26,-0.69,10.09
14616,-0.01,-0.03,-0.09,-0.31,-0.71,10.06
14622,0.02,-0.05,-0.09,-0.35,-0.72,10.05
14627,0.05,-0.06,-0.09,-0.37,-0.74,10.03
14632,0.07,-0.08,-0.09,-0.45,-0.75,10.01
14637,0.09,-0.09,-0.08,-0.54,-0.80,10.01
14642,0.09,-0.10,-0.06,-0.51,-0.85,10.03
14647,0.08,-0.10,-0.05,-0.49,-0.81,10.02
14652,0.08,-0.09,-0.03,-0.48,-0.78,9.98
14657,0.08,-0.08,-0.02,-0.45,-0.77,9.92
14662,0.08,-0.05,-0.01,-0.40,-0.77,9.90
14667,0.08,-0.02,0.00,-0.35,-0.74,9.94
14672,0.07,0.02,0.01,-0.31,-0.70,9.93
14677,0.06,0.05,0.01,-0.30,-0.61,9.98
14682,0.03,0.08,0.01,-0.30,-0.56,9.96
14687,0.00,0.09,-0.00,-0.33,-0.53,9.94
14692,-0.02,0.09,-0.01,-0.39,-0.52,9.90
14697,-0.04,0.08,-0.02,-0.41,-0.53,9.86
14702,-0.06,0.08,-0.03,-0.41,-0.55,9.81
14707,-0.08,0.07,-0.04,-0.49,-0.59,9.79
14712,-0.09,0.05,-0.05,-0.57,-0.61,9.82
14717,-0.09,0.04,-0.05,-0.55,-0.69,9.86
14722,-0.10,0.04,-0.05,-0.52,-0.70,9.85
14727,-0.09,0.03,-0.04,-0.50,-0.70,9.84
14732,-0.07,0.02,-0.03,-0.50,-0.71,9.81
14738,-0.04,0.01,-0.03,-0.49,-0.75,9.80
14743,-0.02,-0.01,-0.02,-0.46,-0.74,9.80
14748,0.00,-0.01,-0.02,-0.45,-0.72,9.81
14753,0.02,-0.03,-0.02,-0.44,-0.70,9.83
14758,0.03,-0.05,-0.02,-0.47,-0.65,9.85
14763,0.03,-0.06,-0.02,-0.47,-0.60,9.85
14768,0.04,-0.08,-0.03,-0.45,-0.58,9.87
14773,0.04,-0.10,-0.03,-0.44,-0.57,9.90
14778,0.04,-0.11,-0.03,-0.43,-0.53,9.87
14783,0.05,-0.11,-0.03,-0.40,-0.49,9.82
14788,0.07,-0.11,-0.03,-0.36,-0.46,9.87
14793,0.07,-0.10,-0.04,-0.35,-0.42,9.96
14798,0.07,-0.10,-0.04,-0.39,-0.39,10.06
14803,0.06,-0.10,-0.04,-0.41,-0.40,10.08
14808,0.05,-0.09,-0.05,-0.36,-0.43,9.97
14813,0.07,-0.09,-0.05,-0.35,-0.47,9.90
14818,0.08,-0.08,-0.05,-0.33,-0.41,9.92
14823,0.09,-0.07,-0.05,-0.33,-0.37,9.98
14828,0.08,-0.06,-0.05,-0.31,-0.35,10.04
14833,0.07,-0.05,-0.06,-0.30,-0.33,10.05
14838,0.06,-0.05,-0.06,-0.33,-0.30,10.02
14843,0.05,-0.04,-0.06,-0.35,-0.29,9.96
14848,0.04,-0.03,-0.06,-0.36,-0.30,9.95
14854,0.03,-0.01,-0.05,-0.37,-0.31,9.91
14859,0.02,-0.01,-0.05,-0.39,-0.31,9.90
14864,0.01,0.00,-0.05,-0.41,-0.28,9.89
14869,-0.01,0.01,-0.05,-0.43,-0.29,9.86
14874,-0.02,0.02,-0.05,-0.45,-0.36,9.92
14879,-0.04,0.02,-0.05,-0.51,-0.37,9.99
14884,-0.05,0.01,-0.04,-0.51,-0.41,10.01
14889,-0.06,-0.01,-0.04,-0.50,-0.48,10.01
14894,-0.06,-0.02,-0.04,-0.47,-0.55,10.01
14899,-0.05,-0.02,-0.03,-0.45,-0.59,9.97
14904,-0.03,-0.02,-0.03,-0.39,-0.64,9.93
14909,-0.01,-0.02,-0.02,-0.39,-0.66,9.96
14914,0.01,-0.02,-0.02,-0.41,-0.66,10.02
14919,0.02,-0.01,-0.01,-0.42,-0.70,10.03
14924,0.03,-0.01,-0.01,-0.39,-0.71,10.02
14929,0.05,-0.01,-0.01,-0.37,-0.67,10.04
14934,0.05,-0.02,-0.00,-0.39,-0.63,10.05
14939,0.06,-0.05,0.00,-0.37,-0.60,9.98
14944,0.06,-0.07,0.01,-0.35,-0.57,9.89
14949,0.08,-0.08,0.01,-0.32,-0.55,9.87
14954,0.09,-0.08,0.00,-0.30,-0.53,9.89
14959,0.10,-0.07,0.00,-0.23,-0.54,9.82
14965,0.11,-0.06,-0.00,-0.19,-0.57,9.79
14970,0.12,-0.05,-0.01,-0.18,-0.53,9.83
14975,0.11,-0.05,-0.02,-0.18,-0.46,9.91
14980,0.08,-0.06,-0.03,-0.18,-0.47,9.91
14985,0.06,-0.06,-0.03,-0.16,-0.49,9.90
14990,0.04,-0.06,-0.03,-0.17,-0.48,9.90
14995,0.02,-0.05,-0.03,-0.18,-0.52,9.93
15000,0.01,-0.04,-0.03,-0.22,-0.55,9.91
15005,0.03,-0.03,-0.03,-0.25,-0.64,9.81
15010,0.10,-0.02,-0.02,-0.25,-0.70,9.84
15015,0.19,-0.02,-0.01,-0.28,-0.66,10.01
15020,0.27,-0.03,0.01,-0.33,-0.60,10.16
15025,0.31,-0.05,0.02,-0.38,-0.50,10.18
15030,0.33,-0.07,0.02,-0.42,-0.50,10.10
15035,0.34,-0.08,0.02,-0.37,-0.44,10.06
15040,0.34,-0.09,0.02,-0.37,-0.42,9.92
15045,0.34,-0.11,0.02,-0.38,-0.46,9.88
15050,0.34,-0.11,0.02,-0.39,-0.48,9.92
15055,0.32,-0.11,0.03,-0.42,-0.46,10.00
15060,0.30,-0.10,0.03,-0.43,-0.47,10.06
15065,0.28,-0.09,0.04,-0.40,-0.45,10.09
15070,0.24,-0.07,0.04,-0.40,-0.42,10.07
15075,0.21,-0.06,0.04,-0.35,-0.36,10.05
15081,0.17,-0.06,0.04,-0.29,-0.36,10.02
15086,0.14,-0.06,0.04,-0.24,-0.35,9.99
15091,0.12,-0.05,0.03,-0.23,-0.37,9.96
15096,0.10,-0.04,0.02,-0.23,-0.35,9.95
15101,0.09,-0.02,0.01,-0.21,-0.35,9.90
15106,0.08,-0.01,0.01,-0.24,-0.35,9.92
15111,0.07,0.00,0.00,-0.27,-0.35,9.95
15116,0.06,0.01,-0.00,-0.28,-0.35,9.98
15121,0.05,0.02,-0.00,-0.33,-0.39,9.96
15126,0.04,0.03,-0.01,-0.38,-0.41,9.92
15131,0.05,0.04,-0.01,-0.39,-0.42,9.89
15136,0.06,0.06,0.00,-0.38,-0.45,9.85
15141,0.07,0.08,0.01,-0.36,-0.44,9.82
15146,0.08,0.10,0.01,-0.35,-0.44,9.83
15151,0.08,0.11,0.02,-0.30,-0.44,9.87
15156,0.07,0.11,0.02,-0.22,-0.43,9.85
15161,0.07,0.11,0.03,-0.23,-0.37,9.74
15166,0.07,0.11,0.02,-0.26,-0.32,9.71
15171,0.07,0.10,0.02,-0.27,-0.32,9.72
15176,0.07,0.08,0.01,-0.31,-0.33,9.72
15181,0.07,0.06,-0.01,-0.33,-0.36,9.73
15186,0.07,0.04,-0.01,-0.34,-0.37,9.76
15191,0.07,0.02,-0.02,-0.34,-0.41,9.80
15197,0.07,-0.01,-0.03,-0.33,-0.47,9.79
15202,0.08,-0.03,-0.03,-0.34,-0.48,9.77
15207,0.09,-0.04,-0.04,-0.39,-0.50,9.82
15212,0.11,-0.05,-0.04,-0.47,-0.48,9.91
15217,0.13,-0.04,-0.04,-0.47,-0.47,9.97
15222,0.14,-0.03,-0.04,-0.50,-0.46,10.00
15227,0.16,-0.02,-0.05,-0.57,-0.42,10.01
15232,0.17,-0.02,-0.04,-0.50,-0.45,10.05
15237,0.19,-0.02,-0.03,-0.46,-0.47,10.18
15242,0.21,-0.01,-0.02,-0.49,-0.47,10.20
15247,0.22,-0.01,-0.02,-0.51,-0.46,10.23
15252,0.22,-0.01,-0.01,-0.49,-0.39,10.28
15257,0.23,-0.01,-0.00,-0.41,-0.36,10.18
15262,0.24,-0.01,0.01,-0.38,-0.34,10.03
15267,0.26,-0.02,0.02,-0.38,-0.26,9.92
15272,0.27,-0.02,0.02,-0.37,-0.21,9.90
15277,0.29,-0.02,0.02,-0.32,-0.16,9.90
15282,0.29,-0.01,0.02,-0.26,-0.11,9.89
15287,0.30,-0.01,0.01,-0.23,-0.04,9.83
15292,0.30,-0.01,0.01,-0.19,-0.01,9.84
15297,0.31,-0.00,-0.00,-0.15,0.02,9.80
15302,0.31,0.01,-0.01,-0.12,0.03,9.84
15307,0.31,0.03,-0.02,-0.13,0.01,9.87
15313,0.31,0.04,-0.03,-0.12,0.01,9.94
15318,0.31,0.04,-0.03,-0.15,0.06,10.07
15323,0.31,0.04,-0.03,-0.24,0.02,10.04
15328,0.32,0.04,-0.02,-0.28,-0.03,10.01
15333,0.34,0.04,-0.02,-0.28,-0.03,9.96
15338,0.36,0.04,-0.01,-0.29,-0.03,9.94
15343,0.38,0.03,-0.00,-0.31,-0.00,9.89
15348,0.41,0.02,-0.00,-0.34,0.01,9.87
15353,0.43,0.02,0.00,-0.35,0.11,9.92
15358,0.45,0.01,-0.01,-0.35,0.17,9.90
15363,0.48,0.01,-0.01,-0.29,0.23,9.85
15368,0.50,0.02,-0.02,-0.25,0.31,9.83
15373,0.52,0.02,-0.04,-0.30,0.34,9.82
15378,0.54,0.04,-0.06,-0.23,0.37,9.69
15383,0.58,0.05,-0.07,-0.18,0.33,9.59
15388,0.63,0.05,-0.08,-0.32,0.40,9.51
15393,0.68,0.04,-0.11,-0.46,0.54,9.53
15398,0.71,0.03,-0.13,-0.45,0.63,9.56
15403,0.74,0.02,-0.15,-0.34,0.59,9.58
15408,0.77,0.01,-0.15,-0.35,0.57,9.57
15413,0.81,0.00,-0.16,-0.37,0.62,9.56
15418,0.84,0.00,-0.17,-0.37,0.63,9.54
15423,0.87,0.01,-0.17,-0.38,0.63,9.53
15429,0.90,0.01,-0.18,-0.43,0.70,9.53
15434,0.92,0.02,-0.18,-0.42,0.78,9.59
15439,0.93,0.03,-0.18,-0.40,0.82,9.56
15444,0.95,0.04,-0.18,-0.42,0.85,9.60
15449,0.96,0.05,-0.18,-0.41,0.93,9.73
15454,0.96,0.07,-0.18,-0.33,0.93,9.77
15459,0.97,0.08,-0.17,-0.31,0.95,9.73
15464,0.97,0.10,-0.16,-0.31,0.96,9.67
15469,0.97,0.10,-0.15,-0.36,1.02,9.60
15474,0.97,0.10,-0.15,-0.44,1.13,9.55
15479,0.97,0.11,-0.15,-0.48,1.31,9.43
15484,0.97,0.12,-0.16,-0.53,1.39,9.34
15489,0.98,0.12,-0.17,-0.51,1.36,9.33
15494,0.98,0.11,-0.18,-0.38,1.28,9.40
15499,0.97,0.10,-0.18,-0.31,1.22,9.41
15504,0.97,0.09,-0.16,-0.31,1.22,9.41
15509,0.96,0.08,-0.16,-0.31,1.29,9.46
15514,0.96,0.06,-0.16,-0.23,1.29,9.44
15519,0.95,0.05,-0.15,-0.19,1.36,9.51
15524,0.95,0.04,-0.15,-0.18,1.45,9.55
15529,0.94,0.02,-0.14,-0.17,1.51,9.62
15534,0.93,-0.01,-0.13,-0.18,1.60,9.70
15539,0.91,-0.04,-0.12,-0.22,1.68,9.73
15545,0.89,-0.08,-0.12,-0.28,1.71,9.83
15550,0.86,-0.11,-0.11,-0.27,1.76,9.96
15555,0.84,-0.13,-0.10,-0.27,1.77,10.01
15560,0.81,-0.14,-0.09,-0.23,1.81,10.03
15565,0.80,-0.15,-0.08,-0.23,1.87,10.07
15570,0.78,-0.15,-0.06,-0.25,1.91,10.13
15575,0.75,-0.15,-0.04,-0.35,1.97,10.18
15580,0.71,-0.16,-0.04,-0.38,2.03,10.21
15585,0.68,-0.15,-0.03,-0.38,2.04,10.20
15590,0.64,-0.12,-0.03,-0.42,2.07,10.13
15595,0.62,-0.09,-0.03,-0.41,2.04,10.04
15600,0.59,-0.06,-0.03,-0.38,1.99,9.96
15605,0.57,-0.04,-0.03,-0.37,1.98,9.95
15610,0.54,-0.01,-0.03,-0.41,2.06,9.96
15615,0.51,0.03,-0.03,-0.36,2.11,9.97
15620,0.48,0.05,-0.02,-0.37,2.12,10.00
15625,0.44,0.06,-0.02,-0.38,2.09,9.97
15630,0.40,0.06,-0.01,-0.38,2.14,9.90
15635,0.37,0.06,-0.01,-0.38,2.13,9.79
15640,0.34,0.04,-0.00,-0.34,2.07,9.70
15645,0.31,0.02,0.00,-0.30,2.05,9.63
15650,0.28,-0.00,0.01,-0.31,2.07,9.57
15656,0.26,-0.02,0.01,-0.38,2.16,9.56
15661,0.23,-0.05,0.00,-0.34,2.22,9.60
15666,0.20,-0.07,-0.00,-0.31,2.28,9.69
15671,0.16,-0.09,-0.00,-0.31,2.32,9.87
15676,0.12,-0.11,-0.01,-0.26,2.32,9.98
15681,0.07,-0.11,-0.01,-0.25,2.34,10.02
15686,0.02,-0.11,-0.01,-0.28,2.37,10.11
15691,-0.03,-0.10,-0.02,-0.31,2.42,10.20
15696,-0.08,-0.08,-0.02,-0.31,2.41,10.28
15701,-0.12,-0.05,-0.02,-0.33,2.37,10.29
15706,-0.16,-0.04,-0.03,-0.32,2.33,10.30
15711,-0.19,-0.02,-0.02,-0.30,2.32,10.31
15716,-0.22,-0.01,-0.01,-0.27,2.29,10.28
15721,-0.26,-0.00,0.00,-0.30,2.30,10.26
15726,-0.28,-0.00,0.01,-0.30,2.32,10.27
15731,-0.31,-0.01,0.01,-0.29,2.37,10.26
15736,-0.33,-0.01,0.00,-0.28,2.32,10.15
15741,-0.35,-0.03,0.00,-0.28,2.24,10.10
15746,-0.37,-0.04,0.00,-0.24,2.19,10.06
15751,-0.38,-0.06,0.01,-0.20,2.12,10.05
15756,-0.40,-0.08,0.02,-0.22,2.14,10.00
15761,-0.40,-0.11,0.02,-0.29,2.16,9.92
15766,-0.39,-0.12,0.02,-0.23,2.13,9.92
15772,-0.39,-0.13,0.02,-0.24,2.14,9.91
15777,-0.39,-0.14,0.02,-0.20,2.09,9.91
15782,-0.39,-0.14,0.02,-0.13,1.99,9.96
15787,-0.40,-0.14,0.03,-0.16,1.98,10.04
15792,-0.40,-0.14,0.03,-0.16,2.00,10.07
15797,-0.41,-0.14,0.03,-0.17,2.03,10.10
15802,-0.42,-0.14,0.04,-0.15,1.99,10.13
15807,-0.44,-0.14,0.04,-0.16,2.02,10.19
15812,-0.46,-0.13,0.04,-0.09,1.99,10.20
15817,-0.47,-0.12,0.05,-0.03,1.94,10.18
15822,-0.49,-0.12,0.06,-0.03,1.95,10.11
15827,-0.49,-0.12,0.06,-0.02,1.87,10.04
15832,-0.50,-0.12,0.07,-0.03,1.80,10.01
15837,-0.50,-0.11,0.07,-0.11,1.78,10.00
15842,-0.50,-0.09,0.07,-0.20,1.78,10.02
15847,-0.49,-0.07,0.06,-0.18,1.76,9.97
15852,-0.48,-0.04,0.06,-0.11,1.64,9.92
15857,-0.47,-0.04,0.06,-0.14,1.61,9.92
15862,-0.46,-0.04,0.06,-0.16,1.58,9.87
15867,-0.46,-0.04,0.07,-0.19,1.58,9.89
15872,-0.45,-0.04,0.07,-0.32,1.63,9.98
15877,-0.45,-0.04,0.07,-0.31,1.57,9.99
15882,-0.46,-0.04,0.06,-0.28,1.55,10.00
15888,-0.47,-0.05,0.06,-0.26,1.52,10.05
15893,-0.48,-0.06,0.06,-0.25,1.52,10.08
15898,-0.48,-0.07,0.06,-0.20,1.50,10.05
15903,-0.49,-0.07,0.06,-0.16,1.51,10.01
15908,-0.50,-0.08,0.06,-0.13,1.50,10.04
15913,-0.50,-0.08,0.06,-0.15,1.52,10.08
15918,-0.51,-0.08,0.06,-0.16,1.51,10.06
15923,-0.51,-0.08,0.05,-0.19,1.50,10.01
15928,-0.51,-0.07,0.04,-0.18,1.45,9.97
15933,-0.51,-0.06,0.04,-0.14,1.36,9.96
15938,-0.51,-0.04,0.03,-0.12,1.29,10.01
15943,-0.51,-0.03,0.03,-0.04,1.20,10.02
15948,-0.51,-0.03,0.03,-0.05,1.17,10.07
15953,-0.50,-0.02,0.04,-0.09,1.17,10.04
15958,-0.50,-0.01,0.04,-0.15,1.14,10.00
15963,-0.49,0.00,0.04,-0.20,1.08,9.96
15968,-0.48,0.01,0.04,-0.18,1.02,9.94
15973,-0.47,0.02,0.04,-0.16,0.92,9.90
15978,-0.45,0.02,0.06,-0.17,0.82,9.88
15983,-0.44,0.02,0.06,-0.27,0.85,9.79
15988,-0.42,0.01,0.07,-0.32,0.89,9.76
15993,-0.41,0.01,0.07,-0.31,0.88,9.78
15999,-0.39,0.01,0.08,-0.29,0.82,9.70
16004,-0.37,0.00,0.08,-0.34,0.90,9.70
16009,-0.35,0.00,0.07,-0.32,0.94,9.76
16014,-0.34,0.00,0.06,-0.27,0.96,9.80
16019,-0.34,0.00,0.05,-0.26,0.96,9.82
16024,-0.34,0.00,0.04,-0.30,0.98,9.89
16029,-0.35,0.01,0.03,-0.31,0.99,10.03
16034,-0.36,0.02,0.01,-0.29,0.96,10.19
16039,-0.38,0.03,0.00,-0.13,0.89,10.22
16044,-0.40,0.04,-0.00,-0.07,0.88,10.24
16049,-0.41,0.04,0.00,-0.02,0.84,10.21
16054,-0.43,0.03,0.00,-0.06,0.84,10.17
16059,-0.45,0.01,0.00,-0.07,0.80,10.11
16064,-0.46,0.00,0.01,-0.09,0.77,10.05
16069,-0.47,-0.00,0.01,-0.11,0.72,9.99
16074,-0.47,0.00,0.02,-0.15,0.61,9.94
16079,-0.46,0.01,0.02,-0.15,0.54,9.86
16084,-0.45,0.01,0.03,-0.14,0.51,9.78
16089,-0.44,0.01,0.04,-0.11,0.50,9.74
16094,-0.43,0.01,0.04,-0.07,0.48,9.71
16099,-0.41,0.01,0.05,0.00,0.45,9.66
16104,-0.40,0.00,0.06,0.04,0.39,9.64
16109,-0.39,0.00,0.07,-0.00,0.39,9.64
16115,-0.38,0.00,0.08,-0.09,0.41,9.65
16120,-0.37,0.01,0.07,-0.14,0.42,9.66
16125,-0.37,0.01,0.07,-0.25,0.48,9.65
16130,-0.36,0.01,0.06,-0.33,0.56,9.64
16135,-0.35,0.03,0.04,-0.37,0.62,9.67
16140,-0.33,0.04,0.02,-0.35,0.61,9.74
16145,-0.32,0.06,0.01,-0.29,0.54,9.77
16150,-0.31,0.08,0.01,-0.22,0.44,9.88
16155,-0.31,0.10,0.01,-0.20,0.40,9.99
16160,-0.30,0.10,0.01,-0.20,0.40,9.99
16165,-0.30,0.11,0.00,-0.18,0.40,9.97
16170,-0.30,0.11,0.00,-0.18,0.40,9.90
16175,-0.29,0.11,0.00,-0.20,0.36,9.81
16180,-0.28,0.11,-0.00,-0.18,0.33,9.78
16185,-0.26,0.11,-0.00,-0.12,0.28,9.78
16190,-0.25,0.11,0.00,-0.09,0.26,9.80
16195,-0.24,0.12,0.00,-0.08,0.27,9.81
16200,-0.24,0.12,0.00,-0.10,0.31,9.81
16205,-0.24,0.11,0.00,-0.13,0.31,9.82
16210,-0.24,0.10,0.00,-0.12,0.33,9.85
16215,-0.24,0.07,0.00,-0.12,0.30,9.86
16220,-0.25,0.05,0.01,-0.16,0.28,9.80
16225,-0.25,0.03,0.01,-0.20,0.27,9.77
16231,-0.25,0.01,0.01,-0.22,0.23,9.76
16236,-0.25,0.01,0.00,-0.24,0.23,9.74
16241,-0.24,0.02,0.00,-0.21,0.21,9.72
16246,-0.23,0.02,-0.00,-0.18,0.21,9.74
16251,-0.22,0.02,-0.00,-0.20,0.22,9.78
16256,-0.22,0.01,-0.00,-0.23,0.22,9.80
16261,-0.22,0.00,-0.01,-0.32,0.20,9.80
16266,-0.22,0.01,-0.01,-0.34,0.18,9.80
16271,-0.21,0.01,-0.02,-0.32,0.15,9.80
16276,-0.21,0.02,-0.02,-0.33,0.12,9.78
16281,-0.20,0.02,-0.02,-0.32,0.06,9.77
16286,-0.19,0.02,-0.02,-0.33,0.05,9.75
16291,-0.18,0.02,-0.02,-0.37,0.04,9.79
16296,-0.17,0.01,-0.02,-0.38,0.03,9.80
16301,-0.17,0.01,-0.02,-0.39,0.03,9.82
16306,-0.17,-0.01,-0.02,-0.36,0.00,9.88
16311,-0.16,-0.01,-0.02,-0.32,0.02,9.93
16316,-0.16,-0.01,-0.03,-0.30,0.00,9.96
16321,-0.15,-0.01,-0.03,-0.23,-0.02,9.91
16326,-0.14,-0.00,-0.02,-0.20,-0.07,9.96
16331,-0.13,0.01,-0.02,-0.18,-0.08,9.98
16336,-0.12,0.02,-0.02,-0.16,-0.06,9.97
16341,-0.10,0.02,-0.02,-0.14,-0.04,9.94
16347,-0.09,0.01,-0.02,-0.14,-0.03,9.91
16352,-0.07,0.00,-0.02,-0.18,-0.02,9.91
16357,-0.05,-0.00,-0.02,-0.19,-0.03,9.90
16362,-0.04,-0.01,-0.02,-0.18,-0.05,9.88
16367,-0.02,-0.01,-0.02,-0.12,-0.07,9.88
16372,-0.00,-0.01,-0.02,-0.11,-0.06,9.90
16377,0.01,-0.01,-0.02,-0.11,-0.05,9.94
16382,0.02,-0.01,-0.02,-0.12,-0.05,9.97
16387,0.02,-0.01,-0.01,-0.14,-0.05,10.00
16392,0.03,-0.01,-0.01,-0.17,-0.07,10.02
16397,0.04,-0.01,-0.01,-0.18,-0.10,10.01
16402,0.04,-0.01,-0.00,-0.20,-0.14,9.98
16407,0.05,-0.01,0.00,-0.24,-0.16,9.99
16412,0.05,-0.01,0.01,-0.24,-0.15,10.01
16417,0.06,-0.01,0.01,-0.22,-0.15,10.02
16422,0.06,-0.02,0.01,-0.22,-0.14,10.02
16427,0.05,-0.02,0.02,-0.23,-0.13,10.04
16432,0.05,-0.02,0.02,-0.22,-0.11,10.06
16437,0.05,-0.02,0.01,-0.25,-0.12,10.08
16442,0.04,-0.02,0.01,-0.27,-0.10,10.06
16447,0.04,-0.02,0.01,-0.26,-0.10,10.06
16452,0.04,-0.02,0.01,-0.27,-0.08,10.03
16457,0.03,-0.02,0.01,-0.26,-0.09,9.98
16463,0.04,-0.02,0.01,-0.27,-0.09,9.93
16468,0.03,-0.02,0.01,-0.30,-0.07,9.92
16473,0.03,-0.02,0.01,-0.28,-0.07,9.94
16478,0.03,-0.02,0.00,-0.23,-0.08,9.94
16483,0.02,-0.03,-0.00,-0.18,-0.05,9.92
16488,0.02,-0.04,-0.01,-0.17,-0.01,9.91
16493,0.01,-0.05,-0.01,-0.16,0.02,9.90
16498,0.01,-0.05,-0.01,-0.18,0.02,9.86
16503,0.01,-0.06,-0.02,-0.18,0.00,9.85
16508,0.01,-0.08,-0.02,-0.19,-0.01,9.89
16513,0.01,-0.10,-0.02,-0.25,0.00,9.86
16518,0.01,-0.12,-0.03,-0.29,0.01,9.81
16523,0.02,-0.13,-0.03,-0.30,-0.01,9.79
16528,0.03,-0.15,-0.03,-0.29,-0.01,9.79
16533,0.04,-0.17,-0.03,-0.28,-0.02,9.81
16538,0.04,-0.18,-0.02,-0.27,-0.04,9.82
16543,0.05,-0.19,-0.03,-0.26,-0.06,9.84
16548,0.06,-0.20,-0.03,-0.20,-0.07,9.88
16553,0.06,-0.22,-0.03,-0.18,-0.04,9.96
16558,0.06,-0.24,-0.03,-0.14,0.01,9.94
16563,0.06,-0.25,-0.02,-0.14,0.01,9.96
16568,0.06,-0.27,-0.02,-0.08,-0.02,9.97
16574,0.06,-0.28,-0.02,-0.02,-0.05,9.97
16579,0.06,-0.29,-0.02,0.01,-0.05,9.95
16584,0.06,-0.30,-0.01,0.09,-0.03,9.94
16589,0.06,-0.31,-0.01,0.06,-0.08,9.93
16594,0.06,-0.34,-0.01,-0.10,-0.05,9.94
16599,0.05,-0.36,-0.02,-0.01,-0.02,9.98
